view_history,rt,name,trial_type,trial_index,time_elapsed,internal_node_id,run_id,condition,recorded_at,source_code_version,ip,user_agent,device,browser,browser_version,platform,platform_version,PROLIFIC_PID,STUDY_ID,SESSION_ID,subject_id,study_id,session_id,response,question_order,accuracy,stimulus,slider_start,price,rate_trial,num_ratings,sequence,option,rank,num_options,num_seqs,seq_cond,reward_cond,array,num_draws
"[{""page_index"":0,""viewing_time"":29133},{""page_index"":1,""viewing_time"":18054},{""page_index"":2,""viewing_time"":2702}]",49890,information sheet,instructions,0,49893,0.0-0.0,10,1,2023-03-29 15:49:28,e768cdc589c53dece0e422349b441e59,90.214.237.143,"Mozilla/5.0 (iPhone; CPU iPhone OS 15_6_1 like Mac OS X) AppleWebKit/605.1.15 (KHTML, like Gecko) Version/15.6.1 Mobile/15E148 Safari/604.1",iPhone,Safari,15.6.1,iOS,15_6_1,61523aa74b55c19b1bc7e98f,64243ea964ad7902968065e7,64245df93144aff3b6ba1f0d,61523aa74b55c19b1bc7e98f,64243ea964ad7902968065e7,64245df93144aff3b6ba1f0d,,,,,,,,,,,,,,,,,
,10735,consent_form,survey-multi-select,1,60640,0.0-1.0,10,1,2023-03-29 15:49:28,e768cdc589c53dece0e422349b441e59,90.214.237.143,"Mozilla/5.0 (iPhone; CPU iPhone OS 15_6_1 like Mac OS X) AppleWebKit/605.1.15 (KHTML, like Gecko) Version/15.6.1 Mobile/15E148 Safari/604.1",iPhone,Safari,15.6.1,iOS,15_6_1,61523aa74b55c19b1bc7e98f,64243ea964ad7902968065e7,64245df93144aff3b6ba1f0d,61523aa74b55c19b1bc7e98f,64243ea964ad7902968065e7,64245df93144aff3b6ba1f0d,"{""Q0"":[""<p style=\""font-size: 12pt;\"">I agree</p>""],""Q1"":[""<p style=\""font-size: 12pt;\"">I agree</p>""],""Q2"":[""<p style=\""font-size: 12pt;\"">I agree</p>""],""Q3"":[""<p style=\""font-size: 12pt;\"">I agree</p>""],""Q4"":[""<p style=\""font-size: 12pt;\"">I agree</p>""],""Q5"":[""<p style=\""font-size: 12pt;\"">I agree</p>""],""Q6"":[""<p style=\""font-size: 12pt;\"">I agree</p>""]}","[0,1,2,3,4,5,6]",,,,,,,,,,,,,,,
,7468,demographics_survey,survey,2,68170,0.0-2.0,10,1,2023-03-29 15:49:28,e768cdc589c53dece0e422349b441e59,90.214.237.143,"Mozilla/5.0 (iPhone; CPU iPhone OS 15_6_1 like Mac OS X) AppleWebKit/605.1.15 (KHTML, like Gecko) Version/15.6.1 Mobile/15E148 Safari/604.1",iPhone,Safari,15.6.1,iOS,15_6_1,61523aa74b55c19b1bc7e98f,64243ea964ad7902968065e7,64245df93144aff3b6ba1f0d,61523aa74b55c19b1bc7e98f,64243ea964ad7902968065e7,64245df93144aff3b6ba1f0d,"{""P0_Q0"":null,""gender"":""Female"",""age"":""23""}",,[],,,,,,,,,,,,,,
"[{""page_index"":0,""viewing_time"":20517}]",20517,phase1_instructions,instructions,3,88688,0.0-3.0,10,1,2023-03-29 15:49:28,e768cdc589c53dece0e422349b441e59,90.214.237.143,"Mozilla/5.0 (iPhone; CPU iPhone OS 15_6_1 like Mac OS X) AppleWebKit/605.1.15 (KHTML, like Gecko) Version/15.6.1 Mobile/15E148 Safari/604.1",iPhone,Safari,15.6.1,iOS,15_6_1,61523aa74b55c19b1bc7e98f,64243ea964ad7902968065e7,64245df93144aff3b6ba1f0d,61523aa74b55c19b1bc7e98f,64243ea964ad7902968065e7,64245df93144aff3b6ba1f0d,,,,,,,,,,,,,,,,,
,11353,rating_trial,html-slider-response,4,100047,0.0-4.0,10,1,2023-03-29 15:49:28,e768cdc589c53dece0e422349b441e59,90.214.237.143,"Mozilla/5.0 (iPhone; CPU iPhone OS 15_6_1 like Mac OS X) AppleWebKit/605.1.15 (KHTML, like Gecko) Version/15.6.1 Mobile/15E148 Safari/604.1",iPhone,Safari,15.6.1,iOS,15_6_1,61523aa74b55c19b1bc7e98f,64243ea964ad7902968065e7,64245df93144aff3b6ba1f0d,61523aa74b55c19b1bc7e98f,64243ea964ad7902968065e7,64245df93144aff3b6ba1f0d,71,,,Price of this smartphone contract: £ 1032,50,1032,0,180,,,,,,,,,
,4920,rating_trial,html-slider-response,5,104972,0.0-5.0,10,1,2023-03-29 15:49:28,e768cdc589c53dece0e422349b441e59,90.214.237.143,"Mozilla/5.0 (iPhone; CPU iPhone OS 15_6_1 like Mac OS X) AppleWebKit/605.1.15 (KHTML, like Gecko) Version/15.6.1 Mobile/15E148 Safari/604.1",iPhone,Safari,15.6.1,iOS,15_6_1,61523aa74b55c19b1bc7e98f,64243ea964ad7902968065e7,64245df93144aff3b6ba1f0d,61523aa74b55c19b1bc7e98f,64243ea964ad7902968065e7,64245df93144aff3b6ba1f0d,61,,,Price of this smartphone contract: £ 571,50,571,1,180,,,,,,,,,
,10295,rating_trial,html-slider-response,6,115270,0.0-6.0,10,1,2023-03-29 15:49:28,e768cdc589c53dece0e422349b441e59,90.214.237.143,"Mozilla/5.0 (iPhone; CPU iPhone OS 15_6_1 like Mac OS X) AppleWebKit/605.1.15 (KHTML, like Gecko) Version/15.6.1 Mobile/15E148 Safari/604.1",iPhone,Safari,15.6.1,iOS,15_6_1,61523aa74b55c19b1bc7e98f,64243ea964ad7902968065e7,64245df93144aff3b6ba1f0d,61523aa74b55c19b1bc7e98f,64243ea964ad7902968065e7,64245df93144aff3b6ba1f0d,36,,,Price of this smartphone contract: £ 631.99,50,631.99,2,180,,,,,,,,,
,7912,rating_trial,html-slider-response,7,123185,0.0-7.0,10,1,2023-03-29 15:49:28,e768cdc589c53dece0e422349b441e59,90.214.237.143,"Mozilla/5.0 (iPhone; CPU iPhone OS 15_6_1 like Mac OS X) AppleWebKit/605.1.15 (KHTML, like Gecko) Version/15.6.1 Mobile/15E148 Safari/604.1",iPhone,Safari,15.6.1,iOS,15_6_1,61523aa74b55c19b1bc7e98f,64243ea964ad7902968065e7,64245df93144aff3b6ba1f0d,61523aa74b55c19b1bc7e98f,64243ea964ad7902968065e7,64245df93144aff3b6ba1f0d,26,,,Price of this smartphone contract: £ 723,50,723,3,180,,,,,,,,,
,4613,rating_trial,html-slider-response,8,127801,0.0-8.0,10,1,2023-03-29 15:49:28,e768cdc589c53dece0e422349b441e59,90.214.237.143,"Mozilla/5.0 (iPhone; CPU iPhone OS 15_6_1 like Mac OS X) AppleWebKit/605.1.15 (KHTML, like Gecko) Version/15.6.1 Mobile/15E148 Safari/604.1",iPhone,Safari,15.6.1,iOS,15_6_1,61523aa74b55c19b1bc7e98f,64243ea964ad7902968065e7,64245df93144aff3b6ba1f0d,61523aa74b55c19b1bc7e98f,64243ea964ad7902968065e7,64245df93144aff3b6ba1f0d,33,,,Price of this smartphone contract: £ 871.99,50,871.99,4,180,,,,,,,,,
,2615,rating_trial,html-slider-response,9,130419,0.0-9.0,10,1,2023-03-29 15:49:28,e768cdc589c53dece0e422349b441e59,90.214.237.143,"Mozilla/5.0 (iPhone; CPU iPhone OS 15_6_1 like Mac OS X) AppleWebKit/605.1.15 (KHTML, like Gecko) Version/15.6.1 Mobile/15E148 Safari/604.1",iPhone,Safari,15.6.1,iOS,15_6_1,61523aa74b55c19b1bc7e98f,64243ea964ad7902968065e7,64245df93144aff3b6ba1f0d,61523aa74b55c19b1bc7e98f,64243ea964ad7902968065e7,64245df93144aff3b6ba1f0d,69,,,Price of this smartphone contract: £ 504,50,504,5,180,,,,,,,,,
,4031,rating_trial,html-slider-response,10,134454,0.0-10.0,10,1,2023-03-29 15:49:28,e768cdc589c53dece0e422349b441e59,90.214.237.143,"Mozilla/5.0 (iPhone; CPU iPhone OS 15_6_1 like Mac OS X) AppleWebKit/605.1.15 (KHTML, like Gecko) Version/15.6.1 Mobile/15E148 Safari/604.1",iPhone,Safari,15.6.1,iOS,15_6_1,61523aa74b55c19b1bc7e98f,64243ea964ad7902968065e7,64245df93144aff3b6ba1f0d,61523aa74b55c19b1bc7e98f,64243ea964ad7902968065e7,64245df93144aff3b6ba1f0d,17,,,Price of this smartphone contract: £ 1691.99,50,1691.99,6,180,,,,,,,,,
,2421,rating_trial,html-slider-response,11,136879,0.0-11.0,10,1,2023-03-29 15:49:28,e768cdc589c53dece0e422349b441e59,90.214.237.143,"Mozilla/5.0 (iPhone; CPU iPhone OS 15_6_1 like Mac OS X) AppleWebKit/605.1.15 (KHTML, like Gecko) Version/15.6.1 Mobile/15E148 Safari/604.1",iPhone,Safari,15.6.1,iOS,15_6_1,61523aa74b55c19b1bc7e98f,64243ea964ad7902968065e7,64245df93144aff3b6ba1f0d,61523aa74b55c19b1bc7e98f,64243ea964ad7902968065e7,64245df93144aff3b6ba1f0d,89,,,Price of this smartphone contract: £ 431.76,50,431.76,7,180,,,,,,,,,
,1670,rating_trial,html-slider-response,12,138553,0.0-12.0,10,1,2023-03-29 15:49:28,e768cdc589c53dece0e422349b441e59,90.214.237.143,"Mozilla/5.0 (iPhone; CPU iPhone OS 15_6_1 like Mac OS X) AppleWebKit/605.1.15 (KHTML, like Gecko) Version/15.6.1 Mobile/15E148 Safari/604.1",iPhone,Safari,15.6.1,iOS,15_6_1,61523aa74b55c19b1bc7e98f,64243ea964ad7902968065e7,64245df93144aff3b6ba1f0d,61523aa74b55c19b1bc7e98f,64243ea964ad7902968065e7,64245df93144aff3b6ba1f0d,30,,,Price of this smartphone contract: £ 725.99,50,725.99,8,180,,,,,,,,,
,1811,rating_trial,html-slider-response,13,140367,0.0-13.0,10,1,2023-03-29 15:49:28,e768cdc589c53dece0e422349b441e59,90.214.237.143,"Mozilla/5.0 (iPhone; CPU iPhone OS 15_6_1 like Mac OS X) AppleWebKit/605.1.15 (KHTML, like Gecko) Version/15.6.1 Mobile/15E148 Safari/604.1",iPhone,Safari,15.6.1,iOS,15_6_1,61523aa74b55c19b1bc7e98f,64243ea964ad7902968065e7,64245df93144aff3b6ba1f0d,61523aa74b55c19b1bc7e98f,64243ea964ad7902968065e7,64245df93144aff3b6ba1f0d,32,,,Price of this smartphone contract: £ 744,50,744,9,180,,,,,,,,,
,3030,rating_trial,html-slider-response,14,143401,0.0-14.0,10,1,2023-03-29 15:49:28,e768cdc589c53dece0e422349b441e59,90.214.237.143,"Mozilla/5.0 (iPhone; CPU iPhone OS 15_6_1 like Mac OS X) AppleWebKit/605.1.15 (KHTML, like Gecko) Version/15.6.1 Mobile/15E148 Safari/604.1",iPhone,Safari,15.6.1,iOS,15_6_1,61523aa74b55c19b1bc7e98f,64243ea964ad7902968065e7,64245df93144aff3b6ba1f0d,61523aa74b55c19b1bc7e98f,64243ea964ad7902968065e7,64245df93144aff3b6ba1f0d,12,,,Price of this smartphone contract: £ 1253.99,50,1253.99,10,180,,,,,,,,,
,4514,rating_trial,html-slider-response,15,147919,0.0-15.0,10,1,2023-03-29 15:49:28,e768cdc589c53dece0e422349b441e59,90.214.237.143,"Mozilla/5.0 (iPhone; CPU iPhone OS 15_6_1 like Mac OS X) AppleWebKit/605.1.15 (KHTML, like Gecko) Version/15.6.1 Mobile/15E148 Safari/604.1",iPhone,Safari,15.6.1,iOS,15_6_1,61523aa74b55c19b1bc7e98f,64243ea964ad7902968065e7,64245df93144aff3b6ba1f0d,61523aa74b55c19b1bc7e98f,64243ea964ad7902968065e7,64245df93144aff3b6ba1f0d,27,,,Price of this smartphone contract: £ 792,50,792,11,180,,,,,,,,,
,4530,rating_trial,html-slider-response,16,152454,0.0-16.0,10,1,2023-03-29 15:49:28,e768cdc589c53dece0e422349b441e59,90.214.237.143,"Mozilla/5.0 (iPhone; CPU iPhone OS 15_6_1 like Mac OS X) AppleWebKit/605.1.15 (KHTML, like Gecko) Version/15.6.1 Mobile/15E148 Safari/604.1",iPhone,Safari,15.6.1,iOS,15_6_1,61523aa74b55c19b1bc7e98f,64243ea964ad7902968065e7,64245df93144aff3b6ba1f0d,61523aa74b55c19b1bc7e98f,64243ea964ad7902968065e7,64245df93144aff3b6ba1f0d,24,,,Price of this smartphone contract: £ 1201.99,50,1201.99,12,180,,,,,,,,,
,2302,rating_trial,html-slider-response,17,154761,0.0-17.0,10,1,2023-03-29 15:49:28,e768cdc589c53dece0e422349b441e59,90.214.237.143,"Mozilla/5.0 (iPhone; CPU iPhone OS 15_6_1 like Mac OS X) AppleWebKit/605.1.15 (KHTML, like Gecko) Version/15.6.1 Mobile/15E148 Safari/604.1",iPhone,Safari,15.6.1,iOS,15_6_1,61523aa74b55c19b1bc7e98f,64243ea964ad7902968065e7,64245df93144aff3b6ba1f0d,61523aa74b55c19b1bc7e98f,64243ea964ad7902968065e7,64245df93144aff3b6ba1f0d,30,,,Price of this smartphone contract: £ 835,50,835,13,180,,,,,,,,,
,1927,rating_trial,html-slider-response,18,156692,0.0-18.0,10,1,2023-03-29 15:49:28,e768cdc589c53dece0e422349b441e59,90.214.237.143,"Mozilla/5.0 (iPhone; CPU iPhone OS 15_6_1 like Mac OS X) AppleWebKit/605.1.15 (KHTML, like Gecko) Version/15.6.1 Mobile/15E148 Safari/604.1",iPhone,Safari,15.6.1,iOS,15_6_1,61523aa74b55c19b1bc7e98f,64243ea964ad7902968065e7,64245df93144aff3b6ba1f0d,61523aa74b55c19b1bc7e98f,64243ea964ad7902968065e7,64245df93144aff3b6ba1f0d,59,,,Price of this smartphone contract: £ 600,50,600,14,180,,,,,,,,,
,2281,rating_trial,html-slider-response,19,158978,0.0-19.0,10,1,2023-03-29 15:49:28,e768cdc589c53dece0e422349b441e59,90.214.237.143,"Mozilla/5.0 (iPhone; CPU iPhone OS 15_6_1 like Mac OS X) AppleWebKit/605.1.15 (KHTML, like Gecko) Version/15.6.1 Mobile/15E148 Safari/604.1",iPhone,Safari,15.6.1,iOS,15_6_1,61523aa74b55c19b1bc7e98f,64243ea964ad7902968065e7,64245df93144aff3b6ba1f0d,61523aa74b55c19b1bc7e98f,64243ea964ad7902968065e7,64245df93144aff3b6ba1f0d,18,,,Price of this smartphone contract: £ 1061.99,50,1061.99,15,180,,,,,,,,,
,2428,rating_trial,html-slider-response,20,161411,0.0-20.0,10,1,2023-03-29 15:49:28,e768cdc589c53dece0e422349b441e59,90.214.237.143,"Mozilla/5.0 (iPhone; CPU iPhone OS 15_6_1 like Mac OS X) AppleWebKit/605.1.15 (KHTML, like Gecko) Version/15.6.1 Mobile/15E148 Safari/604.1",iPhone,Safari,15.6.1,iOS,15_6_1,61523aa74b55c19b1bc7e98f,64243ea964ad7902968065e7,64245df93144aff3b6ba1f0d,61523aa74b55c19b1bc7e98f,64243ea964ad7902968065e7,64245df93144aff3b6ba1f0d,7,,,Price of this smartphone contract: £ 1065.99,50,1065.99,16,180,,,,,,,,,
,1983,rating_trial,html-slider-response,21,163399,0.0-21.0,10,1,2023-03-29 15:49:28,e768cdc589c53dece0e422349b441e59,90.214.237.143,"Mozilla/5.0 (iPhone; CPU iPhone OS 15_6_1 like Mac OS X) AppleWebKit/605.1.15 (KHTML, like Gecko) Version/15.6.1 Mobile/15E148 Safari/604.1",iPhone,Safari,15.6.1,iOS,15_6_1,61523aa74b55c19b1bc7e98f,64243ea964ad7902968065e7,64245df93144aff3b6ba1f0d,61523aa74b55c19b1bc7e98f,64243ea964ad7902968065e7,64245df93144aff3b6ba1f0d,64,,,Price of this smartphone contract: £ 571,50,571,17,180,,,,,,,,,
,1767,rating_trial,html-slider-response,22,165170,0.0-22.0,10,1,2023-03-29 15:49:28,e768cdc589c53dece0e422349b441e59,90.214.237.143,"Mozilla/5.0 (iPhone; CPU iPhone OS 15_6_1 like Mac OS X) AppleWebKit/605.1.15 (KHTML, like Gecko) Version/15.6.1 Mobile/15E148 Safari/604.1",iPhone,Safari,15.6.1,iOS,15_6_1,61523aa74b55c19b1bc7e98f,64243ea964ad7902968065e7,64245df93144aff3b6ba1f0d,61523aa74b55c19b1bc7e98f,64243ea964ad7902968065e7,64245df93144aff3b6ba1f0d,34,,,Price of this smartphone contract: £ 787,50,787,18,180,,,,,,,,,
,1521,rating_trial,html-slider-response,23,166695,0.0-23.0,10,1,2023-03-29 15:49:28,e768cdc589c53dece0e422349b441e59,90.214.237.143,"Mozilla/5.0 (iPhone; CPU iPhone OS 15_6_1 like Mac OS X) AppleWebKit/605.1.15 (KHTML, like Gecko) Version/15.6.1 Mobile/15E148 Safari/604.1",iPhone,Safari,15.6.1,iOS,15_6_1,61523aa74b55c19b1bc7e98f,64243ea964ad7902968065e7,64245df93144aff3b6ba1f0d,61523aa74b55c19b1bc7e98f,64243ea964ad7902968065e7,64245df93144aff3b6ba1f0d,39,,,Price of this smartphone contract: £ 735.99,50,735.99,19,180,,,,,,,,,
,1969,rating_trial,html-slider-response,24,168669,0.0-24.0,10,1,2023-03-29 15:49:28,e768cdc589c53dece0e422349b441e59,90.214.237.143,"Mozilla/5.0 (iPhone; CPU iPhone OS 15_6_1 like Mac OS X) AppleWebKit/605.1.15 (KHTML, like Gecko) Version/15.6.1 Mobile/15E148 Safari/604.1",iPhone,Safari,15.6.1,iOS,15_6_1,61523aa74b55c19b1bc7e98f,64243ea964ad7902968065e7,64245df93144aff3b6ba1f0d,61523aa74b55c19b1bc7e98f,64243ea964ad7902968065e7,64245df93144aff3b6ba1f0d,13,,,Price of this smartphone contract: £ 945.99,50,945.99,20,180,,,,,,,,,
,1775,rating_trial,html-slider-response,25,170449,0.0-25.0,10,1,2023-03-29 15:49:28,e768cdc589c53dece0e422349b441e59,90.214.237.143,"Mozilla/5.0 (iPhone; CPU iPhone OS 15_6_1 like Mac OS X) AppleWebKit/605.1.15 (KHTML, like Gecko) Version/15.6.1 Mobile/15E148 Safari/604.1",iPhone,Safari,15.6.1,iOS,15_6_1,61523aa74b55c19b1bc7e98f,64243ea964ad7902968065e7,64245df93144aff3b6ba1f0d,61523aa74b55c19b1bc7e98f,64243ea964ad7902968065e7,64245df93144aff3b6ba1f0d,4,,,Price of this smartphone contract: £ 989.99,50,989.99,21,180,,,,,,,,,
,2149,rating_trial,html-slider-response,26,172603,0.0-26.0,10,1,2023-03-29 15:49:28,e768cdc589c53dece0e422349b441e59,90.214.237.143,"Mozilla/5.0 (iPhone; CPU iPhone OS 15_6_1 like Mac OS X) AppleWebKit/605.1.15 (KHTML, like Gecko) Version/15.6.1 Mobile/15E148 Safari/604.1",iPhone,Safari,15.6.1,iOS,15_6_1,61523aa74b55c19b1bc7e98f,64243ea964ad7902968065e7,64245df93144aff3b6ba1f0d,61523aa74b55c19b1bc7e98f,64243ea964ad7902968065e7,64245df93144aff3b6ba1f0d,2,,,Price of this smartphone contract: £ 1113.99,50,1113.99,22,180,,,,,,,,,
,7903,rating_trial,html-slider-response,27,180512,0.0-27.0,10,1,2023-03-29 15:49:28,e768cdc589c53dece0e422349b441e59,90.214.237.143,"Mozilla/5.0 (iPhone; CPU iPhone OS 15_6_1 like Mac OS X) AppleWebKit/605.1.15 (KHTML, like Gecko) Version/15.6.1 Mobile/15E148 Safari/604.1",iPhone,Safari,15.6.1,iOS,15_6_1,61523aa74b55c19b1bc7e98f,64243ea964ad7902968065e7,64245df93144aff3b6ba1f0d,61523aa74b55c19b1bc7e98f,64243ea964ad7902968065e7,64245df93144aff3b6ba1f0d,18,,,Price of this smartphone contract: £ 941.99,50,941.99,23,180,,,,,,,,,
,1601,rating_trial,html-slider-response,28,182118,0.0-28.0,10,1,2023-03-29 15:49:28,e768cdc589c53dece0e422349b441e59,90.214.237.143,"Mozilla/5.0 (iPhone; CPU iPhone OS 15_6_1 like Mac OS X) AppleWebKit/605.1.15 (KHTML, like Gecko) Version/15.6.1 Mobile/15E148 Safari/604.1",iPhone,Safari,15.6.1,iOS,15_6_1,61523aa74b55c19b1bc7e98f,64243ea964ad7902968065e7,64245df93144aff3b6ba1f0d,61523aa74b55c19b1bc7e98f,64243ea964ad7902968065e7,64245df93144aff3b6ba1f0d,37,,,Price of this smartphone contract: £ 935,50,935,24,180,,,,,,,,,
,2934,rating_trial,html-slider-response,29,185057,0.0-29.0,10,1,2023-03-29 15:49:28,e768cdc589c53dece0e422349b441e59,90.214.237.143,"Mozilla/5.0 (iPhone; CPU iPhone OS 15_6_1 like Mac OS X) AppleWebKit/605.1.15 (KHTML, like Gecko) Version/15.6.1 Mobile/15E148 Safari/604.1",iPhone,Safari,15.6.1,iOS,15_6_1,61523aa74b55c19b1bc7e98f,64243ea964ad7902968065e7,64245df93144aff3b6ba1f0d,61523aa74b55c19b1bc7e98f,64243ea964ad7902968065e7,64245df93144aff3b6ba1f0d,15,,,Price of this smartphone contract: £ 1152,50,1152,25,180,,,,,,,,,
,1748,rating_trial,html-slider-response,30,186809,0.0-30.0,10,1,2023-03-29 15:49:28,e768cdc589c53dece0e422349b441e59,90.214.237.143,"Mozilla/5.0 (iPhone; CPU iPhone OS 15_6_1 like Mac OS X) AppleWebKit/605.1.15 (KHTML, like Gecko) Version/15.6.1 Mobile/15E148 Safari/604.1",iPhone,Safari,15.6.1,iOS,15_6_1,61523aa74b55c19b1bc7e98f,64243ea964ad7902968065e7,64245df93144aff3b6ba1f0d,61523aa74b55c19b1bc7e98f,64243ea964ad7902968065e7,64245df93144aff3b6ba1f0d,32,,,Price of this smartphone contract: £ 723,50,723,26,180,,,,,,,,,
,1486,rating_trial,html-slider-response,31,188299,0.0-31.0,10,1,2023-03-29 15:49:28,e768cdc589c53dece0e422349b441e59,90.214.237.143,"Mozilla/5.0 (iPhone; CPU iPhone OS 15_6_1 like Mac OS X) AppleWebKit/605.1.15 (KHTML, like Gecko) Version/15.6.1 Mobile/15E148 Safari/604.1",iPhone,Safari,15.6.1,iOS,15_6_1,61523aa74b55c19b1bc7e98f,64243ea964ad7902968065e7,64245df93144aff3b6ba1f0d,61523aa74b55c19b1bc7e98f,64243ea964ad7902968065e7,64245df93144aff3b6ba1f0d,35,,,Price of this smartphone contract: £ 795,50,795,27,180,,,,,,,,,
,2173,rating_trial,html-slider-response,32,190477,0.0-32.0,10,1,2023-03-29 15:49:28,e768cdc589c53dece0e422349b441e59,90.214.237.143,"Mozilla/5.0 (iPhone; CPU iPhone OS 15_6_1 like Mac OS X) AppleWebKit/605.1.15 (KHTML, like Gecko) Version/15.6.1 Mobile/15E148 Safari/604.1",iPhone,Safari,15.6.1,iOS,15_6_1,61523aa74b55c19b1bc7e98f,64243ea964ad7902968065e7,64245df93144aff3b6ba1f0d,61523aa74b55c19b1bc7e98f,64243ea964ad7902968065e7,64245df93144aff3b6ba1f0d,0,,,Price of this smartphone contract: £ 1229.99,50,1229.99,28,180,,,,,,,,,
,1978,rating_trial,html-slider-response,33,192460,0.0-33.0,10,1,2023-03-29 15:49:28,e768cdc589c53dece0e422349b441e59,90.214.237.143,"Mozilla/5.0 (iPhone; CPU iPhone OS 15_6_1 like Mac OS X) AppleWebKit/605.1.15 (KHTML, like Gecko) Version/15.6.1 Mobile/15E148 Safari/604.1",iPhone,Safari,15.6.1,iOS,15_6_1,61523aa74b55c19b1bc7e98f,64243ea964ad7902968065e7,64245df93144aff3b6ba1f0d,61523aa74b55c19b1bc7e98f,64243ea964ad7902968065e7,64245df93144aff3b6ba1f0d,0,,,Price of this smartphone contract: £ 1229.99,50,1229.99,29,180,,,,,,,,,
,1702,rating_trial,html-slider-response,34,194167,0.0-34.0,10,1,2023-03-29 15:49:28,e768cdc589c53dece0e422349b441e59,90.214.237.143,"Mozilla/5.0 (iPhone; CPU iPhone OS 15_6_1 like Mac OS X) AppleWebKit/605.1.15 (KHTML, like Gecko) Version/15.6.1 Mobile/15E148 Safari/604.1",iPhone,Safari,15.6.1,iOS,15_6_1,61523aa74b55c19b1bc7e98f,64243ea964ad7902968065e7,64245df93144aff3b6ba1f0d,61523aa74b55c19b1bc7e98f,64243ea964ad7902968065e7,64245df93144aff3b6ba1f0d,25,,,Price of this smartphone contract: £ 746.99,50,746.99,30,180,,,,,,,,,
,1542,rating_trial,html-slider-response,35,195715,0.0-35.0,10,1,2023-03-29 15:49:28,e768cdc589c53dece0e422349b441e59,90.214.237.143,"Mozilla/5.0 (iPhone; CPU iPhone OS 15_6_1 like Mac OS X) AppleWebKit/605.1.15 (KHTML, like Gecko) Version/15.6.1 Mobile/15E148 Safari/604.1",iPhone,Safari,15.6.1,iOS,15_6_1,61523aa74b55c19b1bc7e98f,64243ea964ad7902968065e7,64245df93144aff3b6ba1f0d,61523aa74b55c19b1bc7e98f,64243ea964ad7902968065e7,64245df93144aff3b6ba1f0d,9,,,Price of this smartphone contract: £ 887.99,50,887.99,31,180,,,,,,,,,
,1289,rating_trial,html-slider-response,36,197009,0.0-36.0,10,1,2023-03-29 15:49:28,e768cdc589c53dece0e422349b441e59,90.214.237.143,"Mozilla/5.0 (iPhone; CPU iPhone OS 15_6_1 like Mac OS X) AppleWebKit/605.1.15 (KHTML, like Gecko) Version/15.6.1 Mobile/15E148 Safari/604.1",iPhone,Safari,15.6.1,iOS,15_6_1,61523aa74b55c19b1bc7e98f,64243ea964ad7902968065e7,64245df93144aff3b6ba1f0d,61523aa74b55c19b1bc7e98f,64243ea964ad7902968065e7,64245df93144aff3b6ba1f0d,25,,,Price of this smartphone contract: £ 779,50,779,32,180,,,,,,,,,
,1228,rating_trial,html-slider-response,37,198242,0.0-37.0,10,1,2023-03-29 15:49:28,e768cdc589c53dece0e422349b441e59,90.214.237.143,"Mozilla/5.0 (iPhone; CPU iPhone OS 15_6_1 like Mac OS X) AppleWebKit/605.1.15 (KHTML, like Gecko) Version/15.6.1 Mobile/15E148 Safari/604.1",iPhone,Safari,15.6.1,iOS,15_6_1,61523aa74b55c19b1bc7e98f,64243ea964ad7902968065e7,64245df93144aff3b6ba1f0d,61523aa74b55c19b1bc7e98f,64243ea964ad7902968065e7,64245df93144aff3b6ba1f0d,24,,,Price of this smartphone contract: £ 799.99,50,799.99,33,180,,,,,,,,,
,2675,rating_trial,html-slider-response,38,200923,0.0-38.0,10,1,2023-03-29 15:49:28,e768cdc589c53dece0e422349b441e59,90.214.237.143,"Mozilla/5.0 (iPhone; CPU iPhone OS 15_6_1 like Mac OS X) AppleWebKit/605.1.15 (KHTML, like Gecko) Version/15.6.1 Mobile/15E148 Safari/604.1",iPhone,Safari,15.6.1,iOS,15_6_1,61523aa74b55c19b1bc7e98f,64243ea964ad7902968065e7,64245df93144aff3b6ba1f0d,61523aa74b55c19b1bc7e98f,64243ea964ad7902968065e7,64245df93144aff3b6ba1f0d,26,,,Price of this smartphone contract: £ 1032,50,1032,34,180,,,,,,,,,
,1512,rating_trial,html-slider-response,39,202440,0.0-39.0,10,1,2023-03-29 15:49:28,e768cdc589c53dece0e422349b441e59,90.214.237.143,"Mozilla/5.0 (iPhone; CPU iPhone OS 15_6_1 like Mac OS X) AppleWebKit/605.1.15 (KHTML, like Gecko) Version/15.6.1 Mobile/15E148 Safari/604.1",iPhone,Safari,15.6.1,iOS,15_6_1,61523aa74b55c19b1bc7e98f,64243ea964ad7902968065e7,64245df93144aff3b6ba1f0d,61523aa74b55c19b1bc7e98f,64243ea964ad7902968065e7,64245df93144aff3b6ba1f0d,39,,,Price of this smartphone contract: £ 667,50,667,35,180,,,,,,,,,
,1405,rating_trial,html-slider-response,40,203849,0.0-40.0,10,1,2023-03-29 15:49:28,e768cdc589c53dece0e422349b441e59,90.214.237.143,"Mozilla/5.0 (iPhone; CPU iPhone OS 15_6_1 like Mac OS X) AppleWebKit/605.1.15 (KHTML, like Gecko) Version/15.6.1 Mobile/15E148 Safari/604.1",iPhone,Safari,15.6.1,iOS,15_6_1,61523aa74b55c19b1bc7e98f,64243ea964ad7902968065e7,64245df93144aff3b6ba1f0d,61523aa74b55c19b1bc7e98f,64243ea964ad7902968065e7,64245df93144aff3b6ba1f0d,57,,,Price of this smartphone contract: £ 590.99,50,590.99,36,180,,,,,,,,,
,3213,rating_trial,html-slider-response,41,207067,0.0-41.0,10,1,2023-03-29 15:49:28,e768cdc589c53dece0e422349b441e59,90.214.237.143,"Mozilla/5.0 (iPhone; CPU iPhone OS 15_6_1 like Mac OS X) AppleWebKit/605.1.15 (KHTML, like Gecko) Version/15.6.1 Mobile/15E148 Safari/604.1",iPhone,Safari,15.6.1,iOS,15_6_1,61523aa74b55c19b1bc7e98f,64243ea964ad7902968065e7,64245df93144aff3b6ba1f0d,61523aa74b55c19b1bc7e98f,64243ea964ad7902968065e7,64245df93144aff3b6ba1f0d,2,,,Price of this smartphone contract: £ 915,50,915,37,180,,,,,,,,,
,2121,rating_trial,html-slider-response,42,209192,0.0-42.0,10,1,2023-03-29 15:49:28,e768cdc589c53dece0e422349b441e59,90.214.237.143,"Mozilla/5.0 (iPhone; CPU iPhone OS 15_6_1 like Mac OS X) AppleWebKit/605.1.15 (KHTML, like Gecko) Version/15.6.1 Mobile/15E148 Safari/604.1",iPhone,Safari,15.6.1,iOS,15_6_1,61523aa74b55c19b1bc7e98f,64243ea964ad7902968065e7,64245df93144aff3b6ba1f0d,61523aa74b55c19b1bc7e98f,64243ea964ad7902968065e7,64245df93144aff3b6ba1f0d,14,,,Price of this smartphone contract: £ 845.99,50,845.99,38,180,,,,,,,,,
,2032,rating_trial,html-slider-response,43,211231,0.0-43.0,10,1,2023-03-29 15:49:28,e768cdc589c53dece0e422349b441e59,90.214.237.143,"Mozilla/5.0 (iPhone; CPU iPhone OS 15_6_1 like Mac OS X) AppleWebKit/605.1.15 (KHTML, like Gecko) Version/15.6.1 Mobile/15E148 Safari/604.1",iPhone,Safari,15.6.1,iOS,15_6_1,61523aa74b55c19b1bc7e98f,64243ea964ad7902968065e7,64245df93144aff3b6ba1f0d,61523aa74b55c19b1bc7e98f,64243ea964ad7902968065e7,64245df93144aff3b6ba1f0d,4,,,Price of this smartphone contract: £ 918.99,50,918.99,39,180,,,,,,,,,
,1746,rating_trial,html-slider-response,44,212982,0.0-44.0,10,1,2023-03-29 15:49:28,e768cdc589c53dece0e422349b441e59,90.214.237.143,"Mozilla/5.0 (iPhone; CPU iPhone OS 15_6_1 like Mac OS X) AppleWebKit/605.1.15 (KHTML, like Gecko) Version/15.6.1 Mobile/15E148 Safari/604.1",iPhone,Safari,15.6.1,iOS,15_6_1,61523aa74b55c19b1bc7e98f,64243ea964ad7902968065e7,64245df93144aff3b6ba1f0d,61523aa74b55c19b1bc7e98f,64243ea964ad7902968065e7,64245df93144aff3b6ba1f0d,26,,,Price of this smartphone contract: £ 720,50,720,40,180,,,,,,,,,
,1461,rating_trial,html-slider-response,45,214447,0.0-45.0,10,1,2023-03-29 15:49:28,e768cdc589c53dece0e422349b441e59,90.214.237.143,"Mozilla/5.0 (iPhone; CPU iPhone OS 15_6_1 like Mac OS X) AppleWebKit/605.1.15 (KHTML, like Gecko) Version/15.6.1 Mobile/15E148 Safari/604.1",iPhone,Safari,15.6.1,iOS,15_6_1,61523aa74b55c19b1bc7e98f,64243ea964ad7902968065e7,64245df93144aff3b6ba1f0d,61523aa74b55c19b1bc7e98f,64243ea964ad7902968065e7,64245df93144aff3b6ba1f0d,35,,,Price of this smartphone contract: £ 744,50,744,41,180,,,,,,,,,
,2845,rating_trial,html-slider-response,46,217297,0.0-46.0,10,1,2023-03-29 15:49:28,e768cdc589c53dece0e422349b441e59,90.214.237.143,"Mozilla/5.0 (iPhone; CPU iPhone OS 15_6_1 like Mac OS X) AppleWebKit/605.1.15 (KHTML, like Gecko) Version/15.6.1 Mobile/15E148 Safari/604.1",iPhone,Safari,15.6.1,iOS,15_6_1,61523aa74b55c19b1bc7e98f,64243ea964ad7902968065e7,64245df93144aff3b6ba1f0d,61523aa74b55c19b1bc7e98f,64243ea964ad7902968065e7,64245df93144aff3b6ba1f0d,0,,,Price of this smartphone contract: £ 1155,50,1155,42,180,,,,,,,,,
,1614,rating_trial,html-slider-response,47,218915,0.0-47.0,10,1,2023-03-29 15:49:28,e768cdc589c53dece0e422349b441e59,90.214.237.143,"Mozilla/5.0 (iPhone; CPU iPhone OS 15_6_1 like Mac OS X) AppleWebKit/605.1.15 (KHTML, like Gecko) Version/15.6.1 Mobile/15E148 Safari/604.1",iPhone,Safari,15.6.1,iOS,15_6_1,61523aa74b55c19b1bc7e98f,64243ea964ad7902968065e7,64245df93144aff3b6ba1f0d,61523aa74b55c19b1bc7e98f,64243ea964ad7902968065e7,64245df93144aff3b6ba1f0d,0,,,Price of this smartphone contract: £ 1709,50,1709,43,180,,,,,,,,,
,1664,rating_trial,html-slider-response,48,220583,0.0-48.0,10,1,2023-03-29 15:49:28,e768cdc589c53dece0e422349b441e59,90.214.237.143,"Mozilla/5.0 (iPhone; CPU iPhone OS 15_6_1 like Mac OS X) AppleWebKit/605.1.15 (KHTML, like Gecko) Version/15.6.1 Mobile/15E148 Safari/604.1",iPhone,Safari,15.6.1,iOS,15_6_1,61523aa74b55c19b1bc7e98f,64243ea964ad7902968065e7,64245df93144aff3b6ba1f0d,61523aa74b55c19b1bc7e98f,64243ea964ad7902968065e7,64245df93144aff3b6ba1f0d,28,,,Price of this smartphone contract: £ 768,50,768,44,180,,,,,,,,,
,2428,rating_trial,html-slider-response,49,223033,0.0-49.0,10,1,2023-03-29 15:49:28,e768cdc589c53dece0e422349b441e59,90.214.237.143,"Mozilla/5.0 (iPhone; CPU iPhone OS 15_6_1 like Mac OS X) AppleWebKit/605.1.15 (KHTML, like Gecko) Version/15.6.1 Mobile/15E148 Safari/604.1",iPhone,Safari,15.6.1,iOS,15_6_1,61523aa74b55c19b1bc7e98f,64243ea964ad7902968065e7,64245df93144aff3b6ba1f0d,61523aa74b55c19b1bc7e98f,64243ea964ad7902968065e7,64245df93144aff3b6ba1f0d,99,,,Price of this smartphone contract: £ 383.76,50,383.76,45,180,,,,,,,,,
,7236,rating_trial,html-slider-response,50,230274,0.0-50.0,10,1,2023-03-29 15:49:28,e768cdc589c53dece0e422349b441e59,90.214.237.143,"Mozilla/5.0 (iPhone; CPU iPhone OS 15_6_1 like Mac OS X) AppleWebKit/605.1.15 (KHTML, like Gecko) Version/15.6.1 Mobile/15E148 Safari/604.1",iPhone,Safari,15.6.1,iOS,15_6_1,61523aa74b55c19b1bc7e98f,64243ea964ad7902968065e7,64245df93144aff3b6ba1f0d,61523aa74b55c19b1bc7e98f,64243ea964ad7902968065e7,64245df93144aff3b6ba1f0d,93,,,Price of this smartphone contract: £ 383.76,50,383.76,46,180,,,,,,,,,
,2926,rating_trial,html-slider-response,51,233206,0.0-51.0,10,1,2023-03-29 15:49:28,e768cdc589c53dece0e422349b441e59,90.214.237.143,"Mozilla/5.0 (iPhone; CPU iPhone OS 15_6_1 like Mac OS X) AppleWebKit/605.1.15 (KHTML, like Gecko) Version/15.6.1 Mobile/15E148 Safari/604.1",iPhone,Safari,15.6.1,iOS,15_6_1,61523aa74b55c19b1bc7e98f,64243ea964ad7902968065e7,64245df93144aff3b6ba1f0d,61523aa74b55c19b1bc7e98f,64243ea964ad7902968065e7,64245df93144aff3b6ba1f0d,10,,,Price of this smartphone contract: £ 917.99,50,917.99,47,180,,,,,,,,,
,1483,rating_trial,html-slider-response,52,234694,0.0-52.0,10,1,2023-03-29 15:49:28,e768cdc589c53dece0e422349b441e59,90.214.237.143,"Mozilla/5.0 (iPhone; CPU iPhone OS 15_6_1 like Mac OS X) AppleWebKit/605.1.15 (KHTML, like Gecko) Version/15.6.1 Mobile/15E148 Safari/604.1",iPhone,Safari,15.6.1,iOS,15_6_1,61523aa74b55c19b1bc7e98f,64243ea964ad7902968065e7,64245df93144aff3b6ba1f0d,61523aa74b55c19b1bc7e98f,64243ea964ad7902968065e7,64245df93144aff3b6ba1f0d,15,,,Price of this smartphone contract: £ 1123,50,1123,48,180,,,,,,,,,
,1631,rating_trial,html-slider-response,53,236330,0.0-53.0,10,1,2023-03-29 15:49:28,e768cdc589c53dece0e422349b441e59,90.214.237.143,"Mozilla/5.0 (iPhone; CPU iPhone OS 15_6_1 like Mac OS X) AppleWebKit/605.1.15 (KHTML, like Gecko) Version/15.6.1 Mobile/15E148 Safari/604.1",iPhone,Safari,15.6.1,iOS,15_6_1,61523aa74b55c19b1bc7e98f,64243ea964ad7902968065e7,64245df93144aff3b6ba1f0d,61523aa74b55c19b1bc7e98f,64243ea964ad7902968065e7,64245df93144aff3b6ba1f0d,32,,,Price of this smartphone contract: £ 735.99,50,735.99,49,180,,,,,,,,,
,1467,rating_trial,html-slider-response,54,237802,0.0-54.0,10,1,2023-03-29 15:49:28,e768cdc589c53dece0e422349b441e59,90.214.237.143,"Mozilla/5.0 (iPhone; CPU iPhone OS 15_6_1 like Mac OS X) AppleWebKit/605.1.15 (KHTML, like Gecko) Version/15.6.1 Mobile/15E148 Safari/604.1",iPhone,Safari,15.6.1,iOS,15_6_1,61523aa74b55c19b1bc7e98f,64243ea964ad7902968065e7,64245df93144aff3b6ba1f0d,61523aa74b55c19b1bc7e98f,64243ea964ad7902968065e7,64245df93144aff3b6ba1f0d,11,,,Price of this smartphone contract: £ 941.99,50,941.99,50,180,,,,,,,,,
,1490,rating_trial,html-slider-response,55,239298,0.0-55.0,10,1,2023-03-29 15:49:28,e768cdc589c53dece0e422349b441e59,90.214.237.143,"Mozilla/5.0 (iPhone; CPU iPhone OS 15_6_1 like Mac OS X) AppleWebKit/605.1.15 (KHTML, like Gecko) Version/15.6.1 Mobile/15E148 Safari/604.1",iPhone,Safari,15.6.1,iOS,15_6_1,61523aa74b55c19b1bc7e98f,64243ea964ad7902968065e7,64245df93144aff3b6ba1f0d,61523aa74b55c19b1bc7e98f,64243ea964ad7902968065e7,64245df93144aff3b6ba1f0d,18,,,Price of this smartphone contract: £ 865.99,50,865.99,51,180,,,,,,,,,
,2695,rating_trial,html-slider-response,56,241999,0.0-56.0,10,1,2023-03-29 15:49:28,e768cdc589c53dece0e422349b441e59,90.214.237.143,"Mozilla/5.0 (iPhone; CPU iPhone OS 15_6_1 like Mac OS X) AppleWebKit/605.1.15 (KHTML, like Gecko) Version/15.6.1 Mobile/15E148 Safari/604.1",iPhone,Safari,15.6.1,iOS,15_6_1,61523aa74b55c19b1bc7e98f,64243ea964ad7902968065e7,64245df93144aff3b6ba1f0d,61523aa74b55c19b1bc7e98f,64243ea964ad7902968065e7,64245df93144aff3b6ba1f0d,4,,,Price of this smartphone contract: £ 1345,50,1345,52,180,,,,,,,,,
,1503,rating_trial,html-slider-response,57,243507,0.0-57.0,10,1,2023-03-29 15:49:28,e768cdc589c53dece0e422349b441e59,90.214.237.143,"Mozilla/5.0 (iPhone; CPU iPhone OS 15_6_1 like Mac OS X) AppleWebKit/605.1.15 (KHTML, like Gecko) Version/15.6.1 Mobile/15E148 Safari/604.1",iPhone,Safari,15.6.1,iOS,15_6_1,61523aa74b55c19b1bc7e98f,64243ea964ad7902968065e7,64245df93144aff3b6ba1f0d,61523aa74b55c19b1bc7e98f,64243ea964ad7902968065e7,64245df93144aff3b6ba1f0d,23,,,Price of this smartphone contract: £ 843,50,843,53,180,,,,,,,,,
,1527,rating_trial,html-slider-response,58,245040,0.0-58.0,10,1,2023-03-29 15:49:28,e768cdc589c53dece0e422349b441e59,90.214.237.143,"Mozilla/5.0 (iPhone; CPU iPhone OS 15_6_1 like Mac OS X) AppleWebKit/605.1.15 (KHTML, like Gecko) Version/15.6.1 Mobile/15E148 Safari/604.1",iPhone,Safari,15.6.1,iOS,15_6_1,61523aa74b55c19b1bc7e98f,64243ea964ad7902968065e7,64245df93144aff3b6ba1f0d,61523aa74b55c19b1bc7e98f,64243ea964ad7902968065e7,64245df93144aff3b6ba1f0d,0,,,Price of this smartphone contract: £ 1320,50,1320,54,180,,,,,,,,,
,1513,rating_trial,html-slider-response,59,246559,0.0-59.0,10,1,2023-03-29 15:49:28,e768cdc589c53dece0e422349b441e59,90.214.237.143,"Mozilla/5.0 (iPhone; CPU iPhone OS 15_6_1 like Mac OS X) AppleWebKit/605.1.15 (KHTML, like Gecko) Version/15.6.1 Mobile/15E148 Safari/604.1",iPhone,Safari,15.6.1,iOS,15_6_1,61523aa74b55c19b1bc7e98f,64243ea964ad7902968065e7,64245df93144aff3b6ba1f0d,61523aa74b55c19b1bc7e98f,64243ea964ad7902968065e7,64245df93144aff3b6ba1f0d,7,,,Price of this smartphone contract: £ 1152,50,1152,55,180,,,,,,,,,
,3948,rating_trial,html-slider-response,60,250513,0.0-60.0,10,1,2023-03-29 15:49:28,e768cdc589c53dece0e422349b441e59,90.214.237.143,"Mozilla/5.0 (iPhone; CPU iPhone OS 15_6_1 like Mac OS X) AppleWebKit/605.1.15 (KHTML, like Gecko) Version/15.6.1 Mobile/15E148 Safari/604.1",iPhone,Safari,15.6.1,iOS,15_6_1,61523aa74b55c19b1bc7e98f,64243ea964ad7902968065e7,64245df93144aff3b6ba1f0d,61523aa74b55c19b1bc7e98f,64243ea964ad7902968065e7,64245df93144aff3b6ba1f0d,18,,,Price of this smartphone contract: £ 923.99,50,923.99,56,180,,,,,,,,,
,25719,rating_trial,html-slider-response,61,276237,0.0-61.0,10,1,2023-03-29 15:49:28,e768cdc589c53dece0e422349b441e59,90.214.237.143,"Mozilla/5.0 (iPhone; CPU iPhone OS 15_6_1 like Mac OS X) AppleWebKit/605.1.15 (KHTML, like Gecko) Version/15.6.1 Mobile/15E148 Safari/604.1",iPhone,Safari,15.6.1,iOS,15_6_1,61523aa74b55c19b1bc7e98f,64243ea964ad7902968065e7,64245df93144aff3b6ba1f0d,61523aa74b55c19b1bc7e98f,64243ea964ad7902968065e7,64245df93144aff3b6ba1f0d,19,,,Price of this smartphone contract: £ 875.99,50,875.99,57,180,,,,,,,,,
,1863,rating_trial,html-slider-response,62,278105,0.0-62.0,10,1,2023-03-29 15:49:28,e768cdc589c53dece0e422349b441e59,90.214.237.143,"Mozilla/5.0 (iPhone; CPU iPhone OS 15_6_1 like Mac OS X) AppleWebKit/605.1.15 (KHTML, like Gecko) Version/15.6.1 Mobile/15E148 Safari/604.1",iPhone,Safari,15.6.1,iOS,15_6_1,61523aa74b55c19b1bc7e98f,64243ea964ad7902968065e7,64245df93144aff3b6ba1f0d,61523aa74b55c19b1bc7e98f,64243ea964ad7902968065e7,64245df93144aff3b6ba1f0d,31,,,Price of this smartphone contract: £ 769.75,50,769.75,58,180,,,,,,,,,
,1890,rating_trial,html-slider-response,63,280000,0.0-63.0,10,1,2023-03-29 15:49:28,e768cdc589c53dece0e422349b441e59,90.214.237.143,"Mozilla/5.0 (iPhone; CPU iPhone OS 15_6_1 like Mac OS X) AppleWebKit/605.1.15 (KHTML, like Gecko) Version/15.6.1 Mobile/15E148 Safari/604.1",iPhone,Safari,15.6.1,iOS,15_6_1,61523aa74b55c19b1bc7e98f,64243ea964ad7902968065e7,64245df93144aff3b6ba1f0d,61523aa74b55c19b1bc7e98f,64243ea964ad7902968065e7,64245df93144aff3b6ba1f0d,13,,,Price of this smartphone contract: £ 909.99,50,909.99,59,180,,,,,,,,,
,3284,rating_trial,html-slider-response,64,283288,0.0-64.0,10,1,2023-03-29 15:49:28,e768cdc589c53dece0e422349b441e59,90.214.237.143,"Mozilla/5.0 (iPhone; CPU iPhone OS 15_6_1 like Mac OS X) AppleWebKit/605.1.15 (KHTML, like Gecko) Version/15.6.1 Mobile/15E148 Safari/604.1",iPhone,Safari,15.6.1,iOS,15_6_1,61523aa74b55c19b1bc7e98f,64243ea964ad7902968065e7,64245df93144aff3b6ba1f0d,61523aa74b55c19b1bc7e98f,64243ea964ad7902968065e7,64245df93144aff3b6ba1f0d,0,,,Price of this smartphone contract: £ 1225,50,1225,60,180,,,,,,,,,
,3350,rating_trial,html-slider-response,65,286644,0.0-65.0,10,1,2023-03-29 15:49:28,e768cdc589c53dece0e422349b441e59,90.214.237.143,"Mozilla/5.0 (iPhone; CPU iPhone OS 15_6_1 like Mac OS X) AppleWebKit/605.1.15 (KHTML, like Gecko) Version/15.6.1 Mobile/15E148 Safari/604.1",iPhone,Safari,15.6.1,iOS,15_6_1,61523aa74b55c19b1bc7e98f,64243ea964ad7902968065e7,64245df93144aff3b6ba1f0d,61523aa74b55c19b1bc7e98f,64243ea964ad7902968065e7,64245df93144aff3b6ba1f0d,0,,,Price of this smartphone contract: £ 1123,50,1123,61,180,,,,,,,,,
,3692,rating_trial,html-slider-response,66,290341,0.0-66.0,10,1,2023-03-29 15:49:28,e768cdc589c53dece0e422349b441e59,90.214.237.143,"Mozilla/5.0 (iPhone; CPU iPhone OS 15_6_1 like Mac OS X) AppleWebKit/605.1.15 (KHTML, like Gecko) Version/15.6.1 Mobile/15E148 Safari/604.1",iPhone,Safari,15.6.1,iOS,15_6_1,61523aa74b55c19b1bc7e98f,64243ea964ad7902968065e7,64245df93144aff3b6ba1f0d,61523aa74b55c19b1bc7e98f,64243ea964ad7902968065e7,64245df93144aff3b6ba1f0d,25,,,Price of this smartphone contract: £ 864,50,864,62,180,,,,,,,,,
,2281,rating_trial,html-slider-response,67,292627,0.0-67.0,10,1,2023-03-29 15:49:28,e768cdc589c53dece0e422349b441e59,90.214.237.143,"Mozilla/5.0 (iPhone; CPU iPhone OS 15_6_1 like Mac OS X) AppleWebKit/605.1.15 (KHTML, like Gecko) Version/15.6.1 Mobile/15E148 Safari/604.1",iPhone,Safari,15.6.1,iOS,15_6_1,61523aa74b55c19b1bc7e98f,64243ea964ad7902968065e7,64245df93144aff3b6ba1f0d,61523aa74b55c19b1bc7e98f,64243ea964ad7902968065e7,64245df93144aff3b6ba1f0d,0,,,Price of this smartphone contract: £ 1115.99,50,1115.99,63,180,,,,,,,,,
,2643,rating_trial,html-slider-response,68,295276,0.0-68.0,10,1,2023-03-29 15:49:28,e768cdc589c53dece0e422349b441e59,90.214.237.143,"Mozilla/5.0 (iPhone; CPU iPhone OS 15_6_1 like Mac OS X) AppleWebKit/605.1.15 (KHTML, like Gecko) Version/15.6.1 Mobile/15E148 Safari/604.1",iPhone,Safari,15.6.1,iOS,15_6_1,61523aa74b55c19b1bc7e98f,64243ea964ad7902968065e7,64245df93144aff3b6ba1f0d,61523aa74b55c19b1bc7e98f,64243ea964ad7902968065e7,64245df93144aff3b6ba1f0d,57,,,Price of this smartphone contract: £ 590.99,50,590.99,64,180,,,,,,,,,
,1905,rating_trial,html-slider-response,69,297187,0.0-69.0,10,1,2023-03-29 15:49:28,e768cdc589c53dece0e422349b441e59,90.214.237.143,"Mozilla/5.0 (iPhone; CPU iPhone OS 15_6_1 like Mac OS X) AppleWebKit/605.1.15 (KHTML, like Gecko) Version/15.6.1 Mobile/15E148 Safari/604.1",iPhone,Safari,15.6.1,iOS,15_6_1,61523aa74b55c19b1bc7e98f,64243ea964ad7902968065e7,64245df93144aff3b6ba1f0d,61523aa74b55c19b1bc7e98f,64243ea964ad7902968065e7,64245df93144aff3b6ba1f0d,45,,,Price of this smartphone contract: £ 642.96,50,642.96,65,180,,,,,,,,,
,3409,rating_trial,html-slider-response,70,300601,0.0-70.0,10,1,2023-03-29 15:49:28,e768cdc589c53dece0e422349b441e59,90.214.237.143,"Mozilla/5.0 (iPhone; CPU iPhone OS 15_6_1 like Mac OS X) AppleWebKit/605.1.15 (KHTML, like Gecko) Version/15.6.1 Mobile/15E148 Safari/604.1",iPhone,Safari,15.6.1,iOS,15_6_1,61523aa74b55c19b1bc7e98f,64243ea964ad7902968065e7,64245df93144aff3b6ba1f0d,61523aa74b55c19b1bc7e98f,64243ea964ad7902968065e7,64245df93144aff3b6ba1f0d,0,,,Price of this smartphone contract: £ 1253.99,50,1253.99,66,180,,,,,,,,,
,4299,rating_trial,html-slider-response,71,304904,0.0-71.0,10,1,2023-03-29 15:49:28,e768cdc589c53dece0e422349b441e59,90.214.237.143,"Mozilla/5.0 (iPhone; CPU iPhone OS 15_6_1 like Mac OS X) AppleWebKit/605.1.15 (KHTML, like Gecko) Version/15.6.1 Mobile/15E148 Safari/604.1",iPhone,Safari,15.6.1,iOS,15_6_1,61523aa74b55c19b1bc7e98f,64243ea964ad7902968065e7,64245df93144aff3b6ba1f0d,61523aa74b55c19b1bc7e98f,64243ea964ad7902968065e7,64245df93144aff3b6ba1f0d,45,,,Price of this smartphone contract: £ 631.92,50,631.92,67,180,,,,,,,,,
,3340,rating_trial,html-slider-response,72,308250,0.0-72.0,10,1,2023-03-29 15:49:28,e768cdc589c53dece0e422349b441e59,90.214.237.143,"Mozilla/5.0 (iPhone; CPU iPhone OS 15_6_1 like Mac OS X) AppleWebKit/605.1.15 (KHTML, like Gecko) Version/15.6.1 Mobile/15E148 Safari/604.1",iPhone,Safari,15.6.1,iOS,15_6_1,61523aa74b55c19b1bc7e98f,64243ea964ad7902968065e7,64245df93144aff3b6ba1f0d,61523aa74b55c19b1bc7e98f,64243ea964ad7902968065e7,64245df93144aff3b6ba1f0d,7,,,Price of this smartphone contract: £ 935,50,935,68,180,,,,,,,,,
,2299,rating_trial,html-slider-response,73,310554,0.0-73.0,10,1,2023-03-29 15:49:28,e768cdc589c53dece0e422349b441e59,90.214.237.143,"Mozilla/5.0 (iPhone; CPU iPhone OS 15_6_1 like Mac OS X) AppleWebKit/605.1.15 (KHTML, like Gecko) Version/15.6.1 Mobile/15E148 Safari/604.1",iPhone,Safari,15.6.1,iOS,15_6_1,61523aa74b55c19b1bc7e98f,64243ea964ad7902968065e7,64245df93144aff3b6ba1f0d,61523aa74b55c19b1bc7e98f,64243ea964ad7902968065e7,64245df93144aff3b6ba1f0d,0,,,Price of this smartphone contract: £ 1763.99,50,1763.99,69,180,,,,,,,,,
,1790,rating_trial,html-slider-response,74,312350,0.0-74.0,10,1,2023-03-29 15:49:28,e768cdc589c53dece0e422349b441e59,90.214.237.143,"Mozilla/5.0 (iPhone; CPU iPhone OS 15_6_1 like Mac OS X) AppleWebKit/605.1.15 (KHTML, like Gecko) Version/15.6.1 Mobile/15E148 Safari/604.1",iPhone,Safari,15.6.1,iOS,15_6_1,61523aa74b55c19b1bc7e98f,64243ea964ad7902968065e7,64245df93144aff3b6ba1f0d,61523aa74b55c19b1bc7e98f,64243ea964ad7902968065e7,64245df93144aff3b6ba1f0d,62,,,Price of this smartphone contract: £ 552,50,552,70,180,,,,,,,,,
,1895,rating_trial,html-slider-response,75,314251,0.0-75.0,10,1,2023-03-29 15:49:28,e768cdc589c53dece0e422349b441e59,90.214.237.143,"Mozilla/5.0 (iPhone; CPU iPhone OS 15_6_1 like Mac OS X) AppleWebKit/605.1.15 (KHTML, like Gecko) Version/15.6.1 Mobile/15E148 Safari/604.1",iPhone,Safari,15.6.1,iOS,15_6_1,61523aa74b55c19b1bc7e98f,64243ea964ad7902968065e7,64245df93144aff3b6ba1f0d,61523aa74b55c19b1bc7e98f,64243ea964ad7902968065e7,64245df93144aff3b6ba1f0d,24,,,Price of this smartphone contract: £ 768,50,768,71,180,,,,,,,,,
,1755,rating_trial,html-slider-response,76,316011,0.0-76.0,10,1,2023-03-29 15:49:28,e768cdc589c53dece0e422349b441e59,90.214.237.143,"Mozilla/5.0 (iPhone; CPU iPhone OS 15_6_1 like Mac OS X) AppleWebKit/605.1.15 (KHTML, like Gecko) Version/15.6.1 Mobile/15E148 Safari/604.1",iPhone,Safari,15.6.1,iOS,15_6_1,61523aa74b55c19b1bc7e98f,64243ea964ad7902968065e7,64245df93144aff3b6ba1f0d,61523aa74b55c19b1bc7e98f,64243ea964ad7902968065e7,64245df93144aff3b6ba1f0d,28,,,Price of this smartphone contract: £ 799.99,50,799.99,72,180,,,,,,,,,
,3258,rating_trial,html-slider-response,77,319275,0.0-77.0,10,1,2023-03-29 15:49:28,e768cdc589c53dece0e422349b441e59,90.214.237.143,"Mozilla/5.0 (iPhone; CPU iPhone OS 15_6_1 like Mac OS X) AppleWebKit/605.1.15 (KHTML, like Gecko) Version/15.6.1 Mobile/15E148 Safari/604.1",iPhone,Safari,15.6.1,iOS,15_6_1,61523aa74b55c19b1bc7e98f,64243ea964ad7902968065e7,64245df93144aff3b6ba1f0d,61523aa74b55c19b1bc7e98f,64243ea964ad7902968065e7,64245df93144aff3b6ba1f0d,14,,,Price of this smartphone contract: £ 839.75,50,839.75,73,180,,,,,,,,,
,3502,rating_trial,html-slider-response,78,322782,0.0-78.0,10,1,2023-03-29 15:49:28,e768cdc589c53dece0e422349b441e59,90.214.237.143,"Mozilla/5.0 (iPhone; CPU iPhone OS 15_6_1 like Mac OS X) AppleWebKit/605.1.15 (KHTML, like Gecko) Version/15.6.1 Mobile/15E148 Safari/604.1",iPhone,Safari,15.6.1,iOS,15_6_1,61523aa74b55c19b1bc7e98f,64243ea964ad7902968065e7,64245df93144aff3b6ba1f0d,61523aa74b55c19b1bc7e98f,64243ea964ad7902968065e7,64245df93144aff3b6ba1f0d,22,,,Price of this smartphone contract: £ 918.99,50,918.99,74,180,,,,,,,,,
,1869,rating_trial,html-slider-response,79,324657,0.0-79.0,10,1,2023-03-29 15:49:28,e768cdc589c53dece0e422349b441e59,90.214.237.143,"Mozilla/5.0 (iPhone; CPU iPhone OS 15_6_1 like Mac OS X) AppleWebKit/605.1.15 (KHTML, like Gecko) Version/15.6.1 Mobile/15E148 Safari/604.1",iPhone,Safari,15.6.1,iOS,15_6_1,61523aa74b55c19b1bc7e98f,64243ea964ad7902968065e7,64245df93144aff3b6ba1f0d,61523aa74b55c19b1bc7e98f,64243ea964ad7902968065e7,64245df93144aff3b6ba1f0d,0,,,Price of this smartphone contract: £ 1345,50,1345,75,180,,,,,,,,,
,1937,rating_trial,html-slider-response,80,326599,0.0-80.0,10,1,2023-03-29 15:49:28,e768cdc589c53dece0e422349b441e59,90.214.237.143,"Mozilla/5.0 (iPhone; CPU iPhone OS 15_6_1 like Mac OS X) AppleWebKit/605.1.15 (KHTML, like Gecko) Version/15.6.1 Mobile/15E148 Safari/604.1",iPhone,Safari,15.6.1,iOS,15_6_1,61523aa74b55c19b1bc7e98f,64243ea964ad7902968065e7,64245df93144aff3b6ba1f0d,61523aa74b55c19b1bc7e98f,64243ea964ad7902968065e7,64245df93144aff3b6ba1f0d,58,,,Price of this smartphone contract: £ 600,50,600,76,180,,,,,,,,,
,1790,rating_trial,html-slider-response,81,328399,0.0-81.0,10,1,2023-03-29 15:49:28,e768cdc589c53dece0e422349b441e59,90.214.237.143,"Mozilla/5.0 (iPhone; CPU iPhone OS 15_6_1 like Mac OS X) AppleWebKit/605.1.15 (KHTML, like Gecko) Version/15.6.1 Mobile/15E148 Safari/604.1",iPhone,Safari,15.6.1,iOS,15_6_1,61523aa74b55c19b1bc7e98f,64243ea964ad7902968065e7,64245df93144aff3b6ba1f0d,61523aa74b55c19b1bc7e98f,64243ea964ad7902968065e7,64245df93144aff3b6ba1f0d,44,,,Price of this smartphone contract: £ 745.99,50,745.99,77,180,,,,,,,,,
,1777,rating_trial,html-slider-response,82,330185,0.0-82.0,10,1,2023-03-29 15:49:28,e768cdc589c53dece0e422349b441e59,90.214.237.143,"Mozilla/5.0 (iPhone; CPU iPhone OS 15_6_1 like Mac OS X) AppleWebKit/605.1.15 (KHTML, like Gecko) Version/15.6.1 Mobile/15E148 Safari/604.1",iPhone,Safari,15.6.1,iOS,15_6_1,61523aa74b55c19b1bc7e98f,64243ea964ad7902968065e7,64245df93144aff3b6ba1f0d,61523aa74b55c19b1bc7e98f,64243ea964ad7902968065e7,64245df93144aff3b6ba1f0d,0,,,Price of this smartphone contract: £ 1139.99,50,1139.99,78,180,,,,,,,,,
,1832,rating_trial,html-slider-response,83,332024,0.0-83.0,10,1,2023-03-29 15:49:28,e768cdc589c53dece0e422349b441e59,90.214.237.143,"Mozilla/5.0 (iPhone; CPU iPhone OS 15_6_1 like Mac OS X) AppleWebKit/605.1.15 (KHTML, like Gecko) Version/15.6.1 Mobile/15E148 Safari/604.1",iPhone,Safari,15.6.1,iOS,15_6_1,61523aa74b55c19b1bc7e98f,64243ea964ad7902968065e7,64245df93144aff3b6ba1f0d,61523aa74b55c19b1bc7e98f,64243ea964ad7902968065e7,64245df93144aff3b6ba1f0d,61,,,Price of this smartphone contract: £ 576,50,576,79,180,,,,,,,,,
,1486,rating_trial,html-slider-response,84,333516,0.0-84.0,10,1,2023-03-29 15:49:28,e768cdc589c53dece0e422349b441e59,90.214.237.143,"Mozilla/5.0 (iPhone; CPU iPhone OS 15_6_1 like Mac OS X) AppleWebKit/605.1.15 (KHTML, like Gecko) Version/15.6.1 Mobile/15E148 Safari/604.1",iPhone,Safari,15.6.1,iOS,15_6_1,61523aa74b55c19b1bc7e98f,64243ea964ad7902968065e7,64245df93144aff3b6ba1f0d,61523aa74b55c19b1bc7e98f,64243ea964ad7902968065e7,64245df93144aff3b6ba1f0d,0,,,Price of this smartphone contract: £ 1065.99,50,1065.99,80,180,,,,,,,,,
,1435,rating_trial,html-slider-response,85,334956,0.0-85.0,10,1,2023-03-29 15:49:28,e768cdc589c53dece0e422349b441e59,90.214.237.143,"Mozilla/5.0 (iPhone; CPU iPhone OS 15_6_1 like Mac OS X) AppleWebKit/605.1.15 (KHTML, like Gecko) Version/15.6.1 Mobile/15E148 Safari/604.1",iPhone,Safari,15.6.1,iOS,15_6_1,61523aa74b55c19b1bc7e98f,64243ea964ad7902968065e7,64245df93144aff3b6ba1f0d,61523aa74b55c19b1bc7e98f,64243ea964ad7902968065e7,64245df93144aff3b6ba1f0d,0,,,Price of this smartphone contract: £ 1061.99,50,1061.99,81,180,,,,,,,,,
,2572,rating_trial,html-slider-response,86,337534,0.0-86.0,10,1,2023-03-29 15:49:28,e768cdc589c53dece0e422349b441e59,90.214.237.143,"Mozilla/5.0 (iPhone; CPU iPhone OS 15_6_1 like Mac OS X) AppleWebKit/605.1.15 (KHTML, like Gecko) Version/15.6.1 Mobile/15E148 Safari/604.1",iPhone,Safari,15.6.1,iOS,15_6_1,61523aa74b55c19b1bc7e98f,64243ea964ad7902968065e7,64245df93144aff3b6ba1f0d,61523aa74b55c19b1bc7e98f,64243ea964ad7902968065e7,64245df93144aff3b6ba1f0d,63,,,Price of this smartphone contract: £ 504,50,504,82,180,,,,,,,,,
,1611,rating_trial,html-slider-response,87,339152,0.0-87.0,10,1,2023-03-29 15:49:28,e768cdc589c53dece0e422349b441e59,90.214.237.143,"Mozilla/5.0 (iPhone; CPU iPhone OS 15_6_1 like Mac OS X) AppleWebKit/605.1.15 (KHTML, like Gecko) Version/15.6.1 Mobile/15E148 Safari/604.1",iPhone,Safari,15.6.1,iOS,15_6_1,61523aa74b55c19b1bc7e98f,64243ea964ad7902968065e7,64245df93144aff3b6ba1f0d,61523aa74b55c19b1bc7e98f,64243ea964ad7902968065e7,64245df93144aff3b6ba1f0d,19,,,Price of this smartphone contract: £ 715,50,715,83,180,,,,,,,,,
,1614,rating_trial,html-slider-response,88,340774,0.0-88.0,10,1,2023-03-29 15:49:28,e768cdc589c53dece0e422349b441e59,90.214.237.143,"Mozilla/5.0 (iPhone; CPU iPhone OS 15_6_1 like Mac OS X) AppleWebKit/605.1.15 (KHTML, like Gecko) Version/15.6.1 Mobile/15E148 Safari/604.1",iPhone,Safari,15.6.1,iOS,15_6_1,61523aa74b55c19b1bc7e98f,64243ea964ad7902968065e7,64245df93144aff3b6ba1f0d,61523aa74b55c19b1bc7e98f,64243ea964ad7902968065e7,64245df93144aff3b6ba1f0d,0,,,Price of this smartphone contract: £ 1155.99,50,1155.99,84,180,,,,,,,,,
,1420,rating_trial,html-slider-response,89,342199,0.0-89.0,10,1,2023-03-29 15:49:28,e768cdc589c53dece0e422349b441e59,90.214.237.143,"Mozilla/5.0 (iPhone; CPU iPhone OS 15_6_1 like Mac OS X) AppleWebKit/605.1.15 (KHTML, like Gecko) Version/15.6.1 Mobile/15E148 Safari/604.1",iPhone,Safari,15.6.1,iOS,15_6_1,61523aa74b55c19b1bc7e98f,64243ea964ad7902968065e7,64245df93144aff3b6ba1f0d,61523aa74b55c19b1bc7e98f,64243ea964ad7902968065e7,64245df93144aff3b6ba1f0d,58,,,Price of this smartphone contract: £ 624,50,624,85,180,,,,,,,,,
,3654,rating_trial,html-slider-response,90,345859,0.0-90.0,10,1,2023-03-29 15:49:28,e768cdc589c53dece0e422349b441e59,90.214.237.143,"Mozilla/5.0 (iPhone; CPU iPhone OS 15_6_1 like Mac OS X) AppleWebKit/605.1.15 (KHTML, like Gecko) Version/15.6.1 Mobile/15E148 Safari/604.1",iPhone,Safari,15.6.1,iOS,15_6_1,61523aa74b55c19b1bc7e98f,64243ea964ad7902968065e7,64245df93144aff3b6ba1f0d,61523aa74b55c19b1bc7e98f,64243ea964ad7902968065e7,64245df93144aff3b6ba1f0d,84,,,Price of this smartphone contract: £ 576,50,576,86,180,,,,,,,,,
,4458,rating_trial,html-slider-response,91,350323,0.0-91.0,10,1,2023-03-29 15:49:28,e768cdc589c53dece0e422349b441e59,90.214.237.143,"Mozilla/5.0 (iPhone; CPU iPhone OS 15_6_1 like Mac OS X) AppleWebKit/605.1.15 (KHTML, like Gecko) Version/15.6.1 Mobile/15E148 Safari/604.1",iPhone,Safari,15.6.1,iOS,15_6_1,61523aa74b55c19b1bc7e98f,64243ea964ad7902968065e7,64245df93144aff3b6ba1f0d,61523aa74b55c19b1bc7e98f,64243ea964ad7902968065e7,64245df93144aff3b6ba1f0d,74,,,Price of this smartphone contract: £ 631.92,50,631.92,87,180,,,,,,,,,
,1809,rating_trial,html-slider-response,92,352139,0.0-92.0,10,1,2023-03-29 15:49:28,e768cdc589c53dece0e422349b441e59,90.214.237.143,"Mozilla/5.0 (iPhone; CPU iPhone OS 15_6_1 like Mac OS X) AppleWebKit/605.1.15 (KHTML, like Gecko) Version/15.6.1 Mobile/15E148 Safari/604.1",iPhone,Safari,15.6.1,iOS,15_6_1,61523aa74b55c19b1bc7e98f,64243ea964ad7902968065e7,64245df93144aff3b6ba1f0d,61523aa74b55c19b1bc7e98f,64243ea964ad7902968065e7,64245df93144aff3b6ba1f0d,28,,,Price of this smartphone contract: £ 845.99,50,845.99,88,180,,,,,,,,,
,1680,rating_trial,html-slider-response,93,353824,0.0-93.0,10,1,2023-03-29 15:49:28,e768cdc589c53dece0e422349b441e59,90.214.237.143,"Mozilla/5.0 (iPhone; CPU iPhone OS 15_6_1 like Mac OS X) AppleWebKit/605.1.15 (KHTML, like Gecko) Version/15.6.1 Mobile/15E148 Safari/604.1",iPhone,Safari,15.6.1,iOS,15_6_1,61523aa74b55c19b1bc7e98f,64243ea964ad7902968065e7,64245df93144aff3b6ba1f0d,61523aa74b55c19b1bc7e98f,64243ea964ad7902968065e7,64245df93144aff3b6ba1f0d,0,,,Price of this smartphone contract: £ 1113.99,50,1113.99,89,180,,,,,,,,,
,2203,rating_trial,html-slider-response,94,356033,0.0-94.0,10,1,2023-03-29 15:49:28,e768cdc589c53dece0e422349b441e59,90.214.237.143,"Mozilla/5.0 (iPhone; CPU iPhone OS 15_6_1 like Mac OS X) AppleWebKit/605.1.15 (KHTML, like Gecko) Version/15.6.1 Mobile/15E148 Safari/604.1",iPhone,Safari,15.6.1,iOS,15_6_1,61523aa74b55c19b1bc7e98f,64243ea964ad7902968065e7,64245df93144aff3b6ba1f0d,61523aa74b55c19b1bc7e98f,64243ea964ad7902968065e7,64245df93144aff3b6ba1f0d,42,,,Price of this smartphone contract: £ 720,50,720,90,180,,,,,,,,,
,1599,rating_trial,html-slider-response,95,357638,0.0-95.0,10,1,2023-03-29 15:49:28,e768cdc589c53dece0e422349b441e59,90.214.237.143,"Mozilla/5.0 (iPhone; CPU iPhone OS 15_6_1 like Mac OS X) AppleWebKit/605.1.15 (KHTML, like Gecko) Version/15.6.1 Mobile/15E148 Safari/604.1",iPhone,Safari,15.6.1,iOS,15_6_1,61523aa74b55c19b1bc7e98f,64243ea964ad7902968065e7,64245df93144aff3b6ba1f0d,61523aa74b55c19b1bc7e98f,64243ea964ad7902968065e7,64245df93144aff3b6ba1f0d,0,,,Price of this smartphone contract: £ 1683,50,1683,91,180,,,,,,,,,
,5035,rating_trial,html-slider-response,96,362680,0.0-96.0,10,1,2023-03-29 15:49:28,e768cdc589c53dece0e422349b441e59,90.214.237.143,"Mozilla/5.0 (iPhone; CPU iPhone OS 15_6_1 like Mac OS X) AppleWebKit/605.1.15 (KHTML, like Gecko) Version/15.6.1 Mobile/15E148 Safari/604.1",iPhone,Safari,15.6.1,iOS,15_6_1,61523aa74b55c19b1bc7e98f,64243ea964ad7902968065e7,64245df93144aff3b6ba1f0d,61523aa74b55c19b1bc7e98f,64243ea964ad7902968065e7,64245df93144aff3b6ba1f0d,0,,,Price of this smartphone contract: £ 1225,50,1225,92,180,,,,,,,,,
,3138,rating_trial,html-slider-response,97,365825,0.0-97.0,10,1,2023-03-29 15:49:28,e768cdc589c53dece0e422349b441e59,90.214.237.143,"Mozilla/5.0 (iPhone; CPU iPhone OS 15_6_1 like Mac OS X) AppleWebKit/605.1.15 (KHTML, like Gecko) Version/15.6.1 Mobile/15E148 Safari/604.1",iPhone,Safari,15.6.1,iOS,15_6_1,61523aa74b55c19b1bc7e98f,64243ea964ad7902968065e7,64245df93144aff3b6ba1f0d,61523aa74b55c19b1bc7e98f,64243ea964ad7902968065e7,64245df93144aff3b6ba1f0d,48,,,Price of this smartphone contract: £ 695.76,50,695.76,93,180,,,,,,,,,
,4616,rating_trial,html-slider-response,98,370449,0.0-98.0,10,1,2023-03-29 15:49:28,e768cdc589c53dece0e422349b441e59,90.214.237.143,"Mozilla/5.0 (iPhone; CPU iPhone OS 15_6_1 like Mac OS X) AppleWebKit/605.1.15 (KHTML, like Gecko) Version/15.6.1 Mobile/15E148 Safari/604.1",iPhone,Safari,15.6.1,iOS,15_6_1,61523aa74b55c19b1bc7e98f,64243ea964ad7902968065e7,64245df93144aff3b6ba1f0d,61523aa74b55c19b1bc7e98f,64243ea964ad7902968065e7,64245df93144aff3b6ba1f0d,45,,,Price of this smartphone contract: £ 792,50,792,94,180,,,,,,,,,
,1668,rating_trial,html-slider-response,99,372124,0.0-99.0,10,1,2023-03-29 15:49:28,e768cdc589c53dece0e422349b441e59,90.214.237.143,"Mozilla/5.0 (iPhone; CPU iPhone OS 15_6_1 like Mac OS X) AppleWebKit/605.1.15 (KHTML, like Gecko) Version/15.6.1 Mobile/15E148 Safari/604.1",iPhone,Safari,15.6.1,iOS,15_6_1,61523aa74b55c19b1bc7e98f,64243ea964ad7902968065e7,64245df93144aff3b6ba1f0d,61523aa74b55c19b1bc7e98f,64243ea964ad7902968065e7,64245df93144aff3b6ba1f0d,100,,,Price of this smartphone contract: £ 480,50,480,95,180,,,,,,,,,
,2532,rating_trial,html-slider-response,100,374663,0.0-100.0,10,1,2023-03-29 15:49:28,e768cdc589c53dece0e422349b441e59,90.214.237.143,"Mozilla/5.0 (iPhone; CPU iPhone OS 15_6_1 like Mac OS X) AppleWebKit/605.1.15 (KHTML, like Gecko) Version/15.6.1 Mobile/15E148 Safari/604.1",iPhone,Safari,15.6.1,iOS,15_6_1,61523aa74b55c19b1bc7e98f,64243ea964ad7902968065e7,64245df93144aff3b6ba1f0d,61523aa74b55c19b1bc7e98f,64243ea964ad7902968065e7,64245df93144aff3b6ba1f0d,42,,,Price of this smartphone contract: £ 746.99,50,746.99,96,180,,,,,,,,,
,1888,rating_trial,html-slider-response,101,376557,0.0-101.0,10,1,2023-03-29 15:49:28,e768cdc589c53dece0e422349b441e59,90.214.237.143,"Mozilla/5.0 (iPhone; CPU iPhone OS 15_6_1 like Mac OS X) AppleWebKit/605.1.15 (KHTML, like Gecko) Version/15.6.1 Mobile/15E148 Safari/604.1",iPhone,Safari,15.6.1,iOS,15_6_1,61523aa74b55c19b1bc7e98f,64243ea964ad7902968065e7,64245df93144aff3b6ba1f0d,61523aa74b55c19b1bc7e98f,64243ea964ad7902968065e7,64245df93144aff3b6ba1f0d,0,,,Price of this smartphone contract: £ 1133.99,50,1133.99,97,180,,,,,,,,,
,2424,rating_trial,html-slider-response,102,378989,0.0-102.0,10,1,2023-03-29 15:49:28,e768cdc589c53dece0e422349b441e59,90.214.237.143,"Mozilla/5.0 (iPhone; CPU iPhone OS 15_6_1 like Mac OS X) AppleWebKit/605.1.15 (KHTML, like Gecko) Version/15.6.1 Mobile/15E148 Safari/604.1",iPhone,Safari,15.6.1,iOS,15_6_1,61523aa74b55c19b1bc7e98f,64243ea964ad7902968065e7,64245df93144aff3b6ba1f0d,61523aa74b55c19b1bc7e98f,64243ea964ad7902968065e7,64245df93144aff3b6ba1f0d,8,,,Price of this smartphone contract: £ 912,50,912,98,180,,,,,,,,,
,1431,rating_trial,html-slider-response,103,380430,0.0-103.0,10,1,2023-03-29 15:49:28,e768cdc589c53dece0e422349b441e59,90.214.237.143,"Mozilla/5.0 (iPhone; CPU iPhone OS 15_6_1 like Mac OS X) AppleWebKit/605.1.15 (KHTML, like Gecko) Version/15.6.1 Mobile/15E148 Safari/604.1",iPhone,Safari,15.6.1,iOS,15_6_1,61523aa74b55c19b1bc7e98f,64243ea964ad7902968065e7,64245df93144aff3b6ba1f0d,61523aa74b55c19b1bc7e98f,64243ea964ad7902968065e7,64245df93144aff3b6ba1f0d,0,,,Price of this smartphone contract: £ 1320,50,1320,99,180,,,,,,,,,
,1485,rating_trial,html-slider-response,104,381921,0.0-104.0,10,1,2023-03-29 15:49:28,e768cdc589c53dece0e422349b441e59,90.214.237.143,"Mozilla/5.0 (iPhone; CPU iPhone OS 15_6_1 like Mac OS X) AppleWebKit/605.1.15 (KHTML, like Gecko) Version/15.6.1 Mobile/15E148 Safari/604.1",iPhone,Safari,15.6.1,iOS,15_6_1,61523aa74b55c19b1bc7e98f,64243ea964ad7902968065e7,64245df93144aff3b6ba1f0d,61523aa74b55c19b1bc7e98f,64243ea964ad7902968065e7,64245df93144aff3b6ba1f0d,0,,,Price of this smartphone contract: £ 1155,50,1155,100,180,,,,,,,,,
,1643,rating_trial,html-slider-response,105,383571,0.0-105.0,10,1,2023-03-29 15:49:28,e768cdc589c53dece0e422349b441e59,90.214.237.143,"Mozilla/5.0 (iPhone; CPU iPhone OS 15_6_1 like Mac OS X) AppleWebKit/605.1.15 (KHTML, like Gecko) Version/15.6.1 Mobile/15E148 Safari/604.1",iPhone,Safari,15.6.1,iOS,15_6_1,61523aa74b55c19b1bc7e98f,64243ea964ad7902968065e7,64245df93144aff3b6ba1f0d,61523aa74b55c19b1bc7e98f,64243ea964ad7902968065e7,64245df93144aff3b6ba1f0d,20,,,Price of this smartphone contract: £ 825.99,50,825.99,101,180,,,,,,,,,
,1570,rating_trial,html-slider-response,106,385148,0.0-106.0,10,1,2023-03-29 15:49:28,e768cdc589c53dece0e422349b441e59,90.214.237.143,"Mozilla/5.0 (iPhone; CPU iPhone OS 15_6_1 like Mac OS X) AppleWebKit/605.1.15 (KHTML, like Gecko) Version/15.6.1 Mobile/15E148 Safari/604.1",iPhone,Safari,15.6.1,iOS,15_6_1,61523aa74b55c19b1bc7e98f,64243ea964ad7902968065e7,64245df93144aff3b6ba1f0d,61523aa74b55c19b1bc7e98f,64243ea964ad7902968065e7,64245df93144aff3b6ba1f0d,31,,,Price of this smartphone contract: £ 745.99,50,745.99,102,180,,,,,,,,,
,1633,rating_trial,html-slider-response,107,386789,0.0-107.0,10,1,2023-03-29 15:49:28,e768cdc589c53dece0e422349b441e59,90.214.237.143,"Mozilla/5.0 (iPhone; CPU iPhone OS 15_6_1 like Mac OS X) AppleWebKit/605.1.15 (KHTML, like Gecko) Version/15.6.1 Mobile/15E148 Safari/604.1",iPhone,Safari,15.6.1,iOS,15_6_1,61523aa74b55c19b1bc7e98f,64243ea964ad7902968065e7,64245df93144aff3b6ba1f0d,61523aa74b55c19b1bc7e98f,64243ea964ad7902968065e7,64245df93144aff3b6ba1f0d,12,,,Price of this smartphone contract: £ 945.99,50,945.99,103,180,,,,,,,,,
,1515,rating_trial,html-slider-response,108,388311,0.0-108.0,10,1,2023-03-29 15:49:28,e768cdc589c53dece0e422349b441e59,90.214.237.143,"Mozilla/5.0 (iPhone; CPU iPhone OS 15_6_1 like Mac OS X) AppleWebKit/605.1.15 (KHTML, like Gecko) Version/15.6.1 Mobile/15E148 Safari/604.1",iPhone,Safari,15.6.1,iOS,15_6_1,61523aa74b55c19b1bc7e98f,64243ea964ad7902968065e7,64245df93144aff3b6ba1f0d,61523aa74b55c19b1bc7e98f,64243ea964ad7902968065e7,64245df93144aff3b6ba1f0d,0,,,Price of this smartphone contract: £ 1083,50,1083,104,180,,,,,,,,,
,5525,rating_trial,html-slider-response,109,393842,0.0-109.0,10,1,2023-03-29 15:49:28,e768cdc589c53dece0e422349b441e59,90.214.237.143,"Mozilla/5.0 (iPhone; CPU iPhone OS 15_6_1 like Mac OS X) AppleWebKit/605.1.15 (KHTML, like Gecko) Version/15.6.1 Mobile/15E148 Safari/604.1",iPhone,Safari,15.6.1,iOS,15_6_1,61523aa74b55c19b1bc7e98f,64243ea964ad7902968065e7,64245df93144aff3b6ba1f0d,61523aa74b55c19b1bc7e98f,64243ea964ad7902968065e7,64245df93144aff3b6ba1f0d,25,,,Price of this smartphone contract: £ 839.75,50,839.75,105,180,,,,,,,,,
,1924,rating_trial,html-slider-response,110,395774,0.0-110.0,10,1,2023-03-29 15:49:28,e768cdc589c53dece0e422349b441e59,90.214.237.143,"Mozilla/5.0 (iPhone; CPU iPhone OS 15_6_1 like Mac OS X) AppleWebKit/605.1.15 (KHTML, like Gecko) Version/15.6.1 Mobile/15E148 Safari/604.1",iPhone,Safari,15.6.1,iOS,15_6_1,61523aa74b55c19b1bc7e98f,64243ea964ad7902968065e7,64245df93144aff3b6ba1f0d,61523aa74b55c19b1bc7e98f,64243ea964ad7902968065e7,64245df93144aff3b6ba1f0d,22,,,Price of this smartphone contract: £ 864,50,864,106,180,,,,,,,,,
,1699,rating_trial,html-slider-response,111,397480,0.0-111.0,10,1,2023-03-29 15:49:28,e768cdc589c53dece0e422349b441e59,90.214.237.143,"Mozilla/5.0 (iPhone; CPU iPhone OS 15_6_1 like Mac OS X) AppleWebKit/605.1.15 (KHTML, like Gecko) Version/15.6.1 Mobile/15E148 Safari/604.1",iPhone,Safari,15.6.1,iOS,15_6_1,61523aa74b55c19b1bc7e98f,64243ea964ad7902968065e7,64245df93144aff3b6ba1f0d,61523aa74b55c19b1bc7e98f,64243ea964ad7902968065e7,64245df93144aff3b6ba1f0d,32,,,Price of this smartphone contract: £ 725.99,50,725.99,107,180,,,,,,,,,
,5093,rating_trial,html-slider-response,112,402580,0.0-112.0,10,1,2023-03-29 15:49:28,e768cdc589c53dece0e422349b441e59,90.214.237.143,"Mozilla/5.0 (iPhone; CPU iPhone OS 15_6_1 like Mac OS X) AppleWebKit/605.1.15 (KHTML, like Gecko) Version/15.6.1 Mobile/15E148 Safari/604.1",iPhone,Safari,15.6.1,iOS,15_6_1,61523aa74b55c19b1bc7e98f,64243ea964ad7902968065e7,64245df93144aff3b6ba1f0d,61523aa74b55c19b1bc7e98f,64243ea964ad7902968065e7,64245df93144aff3b6ba1f0d,100,,,Price of this smartphone contract: £ 432,50,432,108,180,,,,,,,,,
,2840,rating_trial,html-slider-response,113,405428,0.0-113.0,10,1,2023-03-29 15:49:28,e768cdc589c53dece0e422349b441e59,90.214.237.143,"Mozilla/5.0 (iPhone; CPU iPhone OS 15_6_1 like Mac OS X) AppleWebKit/605.1.15 (KHTML, like Gecko) Version/15.6.1 Mobile/15E148 Safari/604.1",iPhone,Safari,15.6.1,iOS,15_6_1,61523aa74b55c19b1bc7e98f,64243ea964ad7902968065e7,64245df93144aff3b6ba1f0d,61523aa74b55c19b1bc7e98f,64243ea964ad7902968065e7,64245df93144aff3b6ba1f0d,2,,,Price of this smartphone contract: £ 989.99,50,989.99,109,180,,,,,,,,,
,1658,rating_trial,html-slider-response,114,407091,0.0-114.0,10,1,2023-03-29 15:49:28,e768cdc589c53dece0e422349b441e59,90.214.237.143,"Mozilla/5.0 (iPhone; CPU iPhone OS 15_6_1 like Mac OS X) AppleWebKit/605.1.15 (KHTML, like Gecko) Version/15.6.1 Mobile/15E148 Safari/604.1",iPhone,Safari,15.6.1,iOS,15_6_1,61523aa74b55c19b1bc7e98f,64243ea964ad7902968065e7,64245df93144aff3b6ba1f0d,61523aa74b55c19b1bc7e98f,64243ea964ad7902968065e7,64245df93144aff3b6ba1f0d,24,,,Price of this smartphone contract: £ 811,50,811,110,180,,,,,,,,,
,3466,rating_trial,html-slider-response,115,410564,0.0-115.0,10,1,2023-03-29 15:49:28,e768cdc589c53dece0e422349b441e59,90.214.237.143,"Mozilla/5.0 (iPhone; CPU iPhone OS 15_6_1 like Mac OS X) AppleWebKit/605.1.15 (KHTML, like Gecko) Version/15.6.1 Mobile/15E148 Safari/604.1",iPhone,Safari,15.6.1,iOS,15_6_1,61523aa74b55c19b1bc7e98f,64243ea964ad7902968065e7,64245df93144aff3b6ba1f0d,61523aa74b55c19b1bc7e98f,64243ea964ad7902968065e7,64245df93144aff3b6ba1f0d,20,,,Price of this smartphone contract: £ 745.75,50,745.75,111,180,,,,,,,,,
,1906,rating_trial,html-slider-response,116,412479,0.0-116.0,10,1,2023-03-29 15:49:28,e768cdc589c53dece0e422349b441e59,90.214.237.143,"Mozilla/5.0 (iPhone; CPU iPhone OS 15_6_1 like Mac OS X) AppleWebKit/605.1.15 (KHTML, like Gecko) Version/15.6.1 Mobile/15E148 Safari/604.1",iPhone,Safari,15.6.1,iOS,15_6_1,61523aa74b55c19b1bc7e98f,64243ea964ad7902968065e7,64245df93144aff3b6ba1f0d,61523aa74b55c19b1bc7e98f,64243ea964ad7902968065e7,64245df93144aff3b6ba1f0d,14,,,Price of this smartphone contract: £ 749.99,50,749.99,112,180,,,,,,,,,
,1559,rating_trial,html-slider-response,117,414046,0.0-117.0,10,1,2023-03-29 15:49:28,e768cdc589c53dece0e422349b441e59,90.214.237.143,"Mozilla/5.0 (iPhone; CPU iPhone OS 15_6_1 like Mac OS X) AppleWebKit/605.1.15 (KHTML, like Gecko) Version/15.6.1 Mobile/15E148 Safari/604.1",iPhone,Safari,15.6.1,iOS,15_6_1,61523aa74b55c19b1bc7e98f,64243ea964ad7902968065e7,64245df93144aff3b6ba1f0d,61523aa74b55c19b1bc7e98f,64243ea964ad7902968065e7,64245df93144aff3b6ba1f0d,100,,,Price of this smartphone contract: £ 431.76,50,431.76,113,180,,,,,,,,,
,1675,rating_trial,html-slider-response,118,415729,0.0-118.0,10,1,2023-03-29 15:49:28,e768cdc589c53dece0e422349b441e59,90.214.237.143,"Mozilla/5.0 (iPhone; CPU iPhone OS 15_6_1 like Mac OS X) AppleWebKit/605.1.15 (KHTML, like Gecko) Version/15.6.1 Mobile/15E148 Safari/604.1",iPhone,Safari,15.6.1,iOS,15_6_1,61523aa74b55c19b1bc7e98f,64243ea964ad7902968065e7,64245df93144aff3b6ba1f0d,61523aa74b55c19b1bc7e98f,64243ea964ad7902968065e7,64245df93144aff3b6ba1f0d,0,,,Price of this smartphone contract: £ 1322,50,1322,114,180,,,,,,,,,
,1784,rating_trial,html-slider-response,119,417522,0.0-119.0,10,1,2023-03-29 15:49:28,e768cdc589c53dece0e422349b441e59,90.214.237.143,"Mozilla/5.0 (iPhone; CPU iPhone OS 15_6_1 like Mac OS X) AppleWebKit/605.1.15 (KHTML, like Gecko) Version/15.6.1 Mobile/15E148 Safari/604.1",iPhone,Safari,15.6.1,iOS,15_6_1,61523aa74b55c19b1bc7e98f,64243ea964ad7902968065e7,64245df93144aff3b6ba1f0d,61523aa74b55c19b1bc7e98f,64243ea964ad7902968065e7,64245df93144aff3b6ba1f0d,100,,,Price of this smartphone contract: £ 359.76,50,359.76,115,180,,,,,,,,,
,1465,rating_trial,html-slider-response,120,418996,0.0-120.0,10,1,2023-03-29 15:49:28,e768cdc589c53dece0e422349b441e59,90.214.237.143,"Mozilla/5.0 (iPhone; CPU iPhone OS 15_6_1 like Mac OS X) AppleWebKit/605.1.15 (KHTML, like Gecko) Version/15.6.1 Mobile/15E148 Safari/604.1",iPhone,Safari,15.6.1,iOS,15_6_1,61523aa74b55c19b1bc7e98f,64243ea964ad7902968065e7,64245df93144aff3b6ba1f0d,61523aa74b55c19b1bc7e98f,64243ea964ad7902968065e7,64245df93144aff3b6ba1f0d,60,,,Price of this smartphone contract: £ 552,50,552,116,180,,,,,,,,,
,1534,rating_trial,html-slider-response,121,420538,0.0-121.0,10,1,2023-03-29 15:49:28,e768cdc589c53dece0e422349b441e59,90.214.237.143,"Mozilla/5.0 (iPhone; CPU iPhone OS 15_6_1 like Mac OS X) AppleWebKit/605.1.15 (KHTML, like Gecko) Version/15.6.1 Mobile/15E148 Safari/604.1",iPhone,Safari,15.6.1,iOS,15_6_1,61523aa74b55c19b1bc7e98f,64243ea964ad7902968065e7,64245df93144aff3b6ba1f0d,61523aa74b55c19b1bc7e98f,64243ea964ad7902968065e7,64245df93144aff3b6ba1f0d,0,,,Price of this smartphone contract: £ 1691.99,50,1691.99,117,180,,,,,,,,,
,1625,rating_trial,html-slider-response,122,422170,0.0-122.0,10,1,2023-03-29 15:49:28,e768cdc589c53dece0e422349b441e59,90.214.237.143,"Mozilla/5.0 (iPhone; CPU iPhone OS 15_6_1 like Mac OS X) AppleWebKit/605.1.15 (KHTML, like Gecko) Version/15.6.1 Mobile/15E148 Safari/604.1",iPhone,Safari,15.6.1,iOS,15_6_1,61523aa74b55c19b1bc7e98f,64243ea964ad7902968065e7,64245df93144aff3b6ba1f0d,61523aa74b55c19b1bc7e98f,64243ea964ad7902968065e7,64245df93144aff3b6ba1f0d,39,,,Price of this smartphone contract: £ 795,50,795,118,180,,,,,,,,,
,1334,rating_trial,html-slider-response,123,423512,0.0-123.0,10,1,2023-03-29 15:49:28,e768cdc589c53dece0e422349b441e59,90.214.237.143,"Mozilla/5.0 (iPhone; CPU iPhone OS 15_6_1 like Mac OS X) AppleWebKit/605.1.15 (KHTML, like Gecko) Version/15.6.1 Mobile/15E148 Safari/604.1",iPhone,Safari,15.6.1,iOS,15_6_1,61523aa74b55c19b1bc7e98f,64243ea964ad7902968065e7,64245df93144aff3b6ba1f0d,61523aa74b55c19b1bc7e98f,64243ea964ad7902968065e7,64245df93144aff3b6ba1f0d,0,,,Price of this smartphone contract: £ 1139.99,50,1139.99,119,180,,,,,,,,,
,1481,rating_trial,html-slider-response,124,424998,0.0-124.0,10,1,2023-03-29 15:49:28,e768cdc589c53dece0e422349b441e59,90.214.237.143,"Mozilla/5.0 (iPhone; CPU iPhone OS 15_6_1 like Mac OS X) AppleWebKit/605.1.15 (KHTML, like Gecko) Version/15.6.1 Mobile/15E148 Safari/604.1",iPhone,Safari,15.6.1,iOS,15_6_1,61523aa74b55c19b1bc7e98f,64243ea964ad7902968065e7,64245df93144aff3b6ba1f0d,61523aa74b55c19b1bc7e98f,64243ea964ad7902968065e7,64245df93144aff3b6ba1f0d,58,,,Price of this smartphone contract: £ 646.08,50,646.08,120,180,,,,,,,,,
,1407,rating_trial,html-slider-response,125,426415,0.0-125.0,10,1,2023-03-29 15:49:28,e768cdc589c53dece0e422349b441e59,90.214.237.143,"Mozilla/5.0 (iPhone; CPU iPhone OS 15_6_1 like Mac OS X) AppleWebKit/605.1.15 (KHTML, like Gecko) Version/15.6.1 Mobile/15E148 Safari/604.1",iPhone,Safari,15.6.1,iOS,15_6_1,61523aa74b55c19b1bc7e98f,64243ea964ad7902968065e7,64245df93144aff3b6ba1f0d,61523aa74b55c19b1bc7e98f,64243ea964ad7902968065e7,64245df93144aff3b6ba1f0d,35,,,Price of this smartphone contract: £ 745.75,50,745.75,121,180,,,,,,,,,
,1340,rating_trial,html-slider-response,126,427762,0.0-126.0,10,1,2023-03-29 15:49:28,e768cdc589c53dece0e422349b441e59,90.214.237.143,"Mozilla/5.0 (iPhone; CPU iPhone OS 15_6_1 like Mac OS X) AppleWebKit/605.1.15 (KHTML, like Gecko) Version/15.6.1 Mobile/15E148 Safari/604.1",iPhone,Safari,15.6.1,iOS,15_6_1,61523aa74b55c19b1bc7e98f,64243ea964ad7902968065e7,64245df93144aff3b6ba1f0d,61523aa74b55c19b1bc7e98f,64243ea964ad7902968065e7,64245df93144aff3b6ba1f0d,100,,,Price of this smartphone contract: £ 480,50,480,122,180,,,,,,,,,
,2993,rating_trial,html-slider-response,127,430762,0.0-127.0,10,1,2023-03-29 15:49:28,e768cdc589c53dece0e422349b441e59,90.214.237.143,"Mozilla/5.0 (iPhone; CPU iPhone OS 15_6_1 like Mac OS X) AppleWebKit/605.1.15 (KHTML, like Gecko) Version/15.6.1 Mobile/15E148 Safari/604.1",iPhone,Safari,15.6.1,iOS,15_6_1,61523aa74b55c19b1bc7e98f,64243ea964ad7902968065e7,64245df93144aff3b6ba1f0d,61523aa74b55c19b1bc7e98f,64243ea964ad7902968065e7,64245df93144aff3b6ba1f0d,0,,,Price of this smartphone contract: £ 1201.99,50,1201.99,123,180,,,,,,,,,
,1932,rating_trial,html-slider-response,128,432702,0.0-128.0,10,1,2023-03-29 15:49:28,e768cdc589c53dece0e422349b441e59,90.214.237.143,"Mozilla/5.0 (iPhone; CPU iPhone OS 15_6_1 like Mac OS X) AppleWebKit/605.1.15 (KHTML, like Gecko) Version/15.6.1 Mobile/15E148 Safari/604.1",iPhone,Safari,15.6.1,iOS,15_6_1,61523aa74b55c19b1bc7e98f,64243ea964ad7902968065e7,64245df93144aff3b6ba1f0d,61523aa74b55c19b1bc7e98f,64243ea964ad7902968065e7,64245df93144aff3b6ba1f0d,8,,,Price of this smartphone contract: £ 923.99,50,923.99,124,180,,,,,,,,,
,2812,rating_trial,html-slider-response,129,435522,0.0-129.0,10,1,2023-03-29 15:49:28,e768cdc589c53dece0e422349b441e59,90.214.237.143,"Mozilla/5.0 (iPhone; CPU iPhone OS 15_6_1 like Mac OS X) AppleWebKit/605.1.15 (KHTML, like Gecko) Version/15.6.1 Mobile/15E148 Safari/604.1",iPhone,Safari,15.6.1,iOS,15_6_1,61523aa74b55c19b1bc7e98f,64243ea964ad7902968065e7,64245df93144aff3b6ba1f0d,61523aa74b55c19b1bc7e98f,64243ea964ad7902968065e7,64245df93144aff3b6ba1f0d,20,,,Price of this smartphone contract: £ 798.99,50,798.99,125,180,,,,,,,,,
,2515,rating_trial,html-slider-response,130,438045,0.0-130.0,10,1,2023-03-29 15:49:28,e768cdc589c53dece0e422349b441e59,90.214.237.143,"Mozilla/5.0 (iPhone; CPU iPhone OS 15_6_1 like Mac OS X) AppleWebKit/605.1.15 (KHTML, like Gecko) Version/15.6.1 Mobile/15E148 Safari/604.1",iPhone,Safari,15.6.1,iOS,15_6_1,61523aa74b55c19b1bc7e98f,64243ea964ad7902968065e7,64245df93144aff3b6ba1f0d,61523aa74b55c19b1bc7e98f,64243ea964ad7902968065e7,64245df93144aff3b6ba1f0d,31,,,Price of this smartphone contract: £ 779,50,779,126,180,,,,,,,,,
,1401,rating_trial,html-slider-response,131,439453,0.0-131.0,10,1,2023-03-29 15:49:28,e768cdc589c53dece0e422349b441e59,90.214.237.143,"Mozilla/5.0 (iPhone; CPU iPhone OS 15_6_1 like Mac OS X) AppleWebKit/605.1.15 (KHTML, like Gecko) Version/15.6.1 Mobile/15E148 Safari/604.1",iPhone,Safari,15.6.1,iOS,15_6_1,61523aa74b55c19b1bc7e98f,64243ea964ad7902968065e7,64245df93144aff3b6ba1f0d,61523aa74b55c19b1bc7e98f,64243ea964ad7902968065e7,64245df93144aff3b6ba1f0d,41,,,Price of this smartphone contract: £ 798.99,50,798.99,127,180,,,,,,,,,
,1399,rating_trial,html-slider-response,132,440860,0.0-132.0,10,1,2023-03-29 15:49:28,e768cdc589c53dece0e422349b441e59,90.214.237.143,"Mozilla/5.0 (iPhone; CPU iPhone OS 15_6_1 like Mac OS X) AppleWebKit/605.1.15 (KHTML, like Gecko) Version/15.6.1 Mobile/15E148 Safari/604.1",iPhone,Safari,15.6.1,iOS,15_6_1,61523aa74b55c19b1bc7e98f,64243ea964ad7902968065e7,64245df93144aff3b6ba1f0d,61523aa74b55c19b1bc7e98f,64243ea964ad7902968065e7,64245df93144aff3b6ba1f0d,0,,,Price of this smartphone contract: £ 1187.99,50,1187.99,128,180,,,,,,,,,
,2978,rating_trial,html-slider-response,133,443846,0.0-133.0,10,1,2023-03-29 15:49:28,e768cdc589c53dece0e422349b441e59,90.214.237.143,"Mozilla/5.0 (iPhone; CPU iPhone OS 15_6_1 like Mac OS X) AppleWebKit/605.1.15 (KHTML, like Gecko) Version/15.6.1 Mobile/15E148 Safari/604.1",iPhone,Safari,15.6.1,iOS,15_6_1,61523aa74b55c19b1bc7e98f,64243ea964ad7902968065e7,64245df93144aff3b6ba1f0d,61523aa74b55c19b1bc7e98f,64243ea964ad7902968065e7,64245df93144aff3b6ba1f0d,11,,,Price of this smartphone contract: £ 871.99,50,871.99,129,180,,,,,,,,,
,1557,rating_trial,html-slider-response,134,445410,0.0-134.0,10,1,2023-03-29 15:49:28,e768cdc589c53dece0e422349b441e59,90.214.237.143,"Mozilla/5.0 (iPhone; CPU iPhone OS 15_6_1 like Mac OS X) AppleWebKit/605.1.15 (KHTML, like Gecko) Version/15.6.1 Mobile/15E148 Safari/604.1",iPhone,Safari,15.6.1,iOS,15_6_1,61523aa74b55c19b1bc7e98f,64243ea964ad7902968065e7,64245df93144aff3b6ba1f0d,61523aa74b55c19b1bc7e98f,64243ea964ad7902968065e7,64245df93144aff3b6ba1f0d,0,,,Price of this smartphone contract: £ 1250,50,1250,130,180,,,,,,,,,
,2126,rating_trial,html-slider-response,135,447543,0.0-135.0,10,1,2023-03-29 15:49:28,e768cdc589c53dece0e422349b441e59,90.214.237.143,"Mozilla/5.0 (iPhone; CPU iPhone OS 15_6_1 like Mac OS X) AppleWebKit/605.1.15 (KHTML, like Gecko) Version/15.6.1 Mobile/15E148 Safari/604.1",iPhone,Safari,15.6.1,iOS,15_6_1,61523aa74b55c19b1bc7e98f,64243ea964ad7902968065e7,64245df93144aff3b6ba1f0d,61523aa74b55c19b1bc7e98f,64243ea964ad7902968065e7,64245df93144aff3b6ba1f0d,0,,,Price of this smartphone contract: £ 1683,50,1683,131,180,,,,,,,,,
,2177,rating_trial,html-slider-response,136,449727,0.0-136.0,10,1,2023-03-29 15:49:28,e768cdc589c53dece0e422349b441e59,90.214.237.143,"Mozilla/5.0 (iPhone; CPU iPhone OS 15_6_1 like Mac OS X) AppleWebKit/605.1.15 (KHTML, like Gecko) Version/15.6.1 Mobile/15E148 Safari/604.1",iPhone,Safari,15.6.1,iOS,15_6_1,61523aa74b55c19b1bc7e98f,64243ea964ad7902968065e7,64245df93144aff3b6ba1f0d,61523aa74b55c19b1bc7e98f,64243ea964ad7902968065e7,64245df93144aff3b6ba1f0d,5,,,Price of this smartphone contract: £ 917.99,50,917.99,132,180,,,,,,,,,
,1717,rating_trial,html-slider-response,137,451452,0.0-137.0,10,1,2023-03-29 15:49:28,e768cdc589c53dece0e422349b441e59,90.214.237.143,"Mozilla/5.0 (iPhone; CPU iPhone OS 15_6_1 like Mac OS X) AppleWebKit/605.1.15 (KHTML, like Gecko) Version/15.6.1 Mobile/15E148 Safari/604.1",iPhone,Safari,15.6.1,iOS,15_6_1,61523aa74b55c19b1bc7e98f,64243ea964ad7902968065e7,64245df93144aff3b6ba1f0d,61523aa74b55c19b1bc7e98f,64243ea964ad7902968065e7,64245df93144aff3b6ba1f0d,8,,,Price of this smartphone contract: £ 915,50,915,133,180,,,,,,,,,
,3417,rating_trial,html-slider-response,138,454876,0.0-138.0,10,1,2023-03-29 15:49:28,e768cdc589c53dece0e422349b441e59,90.214.237.143,"Mozilla/5.0 (iPhone; CPU iPhone OS 15_6_1 like Mac OS X) AppleWebKit/605.1.15 (KHTML, like Gecko) Version/15.6.1 Mobile/15E148 Safari/604.1",iPhone,Safari,15.6.1,iOS,15_6_1,61523aa74b55c19b1bc7e98f,64243ea964ad7902968065e7,64245df93144aff3b6ba1f0d,61523aa74b55c19b1bc7e98f,64243ea964ad7902968065e7,64245df93144aff3b6ba1f0d,53,,,Price of this smartphone contract: £ 631.99,50,631.99,134,180,,,,,,,,,
,1595,rating_trial,html-slider-response,139,456478,0.0-139.0,10,1,2023-03-29 15:49:28,e768cdc589c53dece0e422349b441e59,90.214.237.143,"Mozilla/5.0 (iPhone; CPU iPhone OS 15_6_1 like Mac OS X) AppleWebKit/605.1.15 (KHTML, like Gecko) Version/15.6.1 Mobile/15E148 Safari/604.1",iPhone,Safari,15.6.1,iOS,15_6_1,61523aa74b55c19b1bc7e98f,64243ea964ad7902968065e7,64245df93144aff3b6ba1f0d,61523aa74b55c19b1bc7e98f,64243ea964ad7902968065e7,64245df93144aff3b6ba1f0d,0,,,Price of this smartphone contract: £ 1115.99,50,1115.99,135,180,,,,,,,,,
,2049,rating_trial,html-slider-response,140,458536,0.0-140.0,10,1,2023-03-29 15:49:28,e768cdc589c53dece0e422349b441e59,90.214.237.143,"Mozilla/5.0 (iPhone; CPU iPhone OS 15_6_1 like Mac OS X) AppleWebKit/605.1.15 (KHTML, like Gecko) Version/15.6.1 Mobile/15E148 Safari/604.1",iPhone,Safari,15.6.1,iOS,15_6_1,61523aa74b55c19b1bc7e98f,64243ea964ad7902968065e7,64245df93144aff3b6ba1f0d,61523aa74b55c19b1bc7e98f,64243ea964ad7902968065e7,64245df93144aff3b6ba1f0d,61,,,Price of this smartphone contract: £ 551.76,50,551.76,136,180,,,,,,,,,
,1657,rating_trial,html-slider-response,141,460202,0.0-141.0,10,1,2023-03-29 15:49:28,e768cdc589c53dece0e422349b441e59,90.214.237.143,"Mozilla/5.0 (iPhone; CPU iPhone OS 15_6_1 like Mac OS X) AppleWebKit/605.1.15 (KHTML, like Gecko) Version/15.6.1 Mobile/15E148 Safari/604.1",iPhone,Safari,15.6.1,iOS,15_6_1,61523aa74b55c19b1bc7e98f,64243ea964ad7902968065e7,64245df93144aff3b6ba1f0d,61523aa74b55c19b1bc7e98f,64243ea964ad7902968065e7,64245df93144aff3b6ba1f0d,83,,,Price of this smartphone contract: £ 528,50,528,137,180,,,,,,,,,
,1367,rating_trial,html-slider-response,142,461577,0.0-142.0,10,1,2023-03-29 15:49:28,e768cdc589c53dece0e422349b441e59,90.214.237.143,"Mozilla/5.0 (iPhone; CPU iPhone OS 15_6_1 like Mac OS X) AppleWebKit/605.1.15 (KHTML, like Gecko) Version/15.6.1 Mobile/15E148 Safari/604.1",iPhone,Safari,15.6.1,iOS,15_6_1,61523aa74b55c19b1bc7e98f,64243ea964ad7902968065e7,64245df93144aff3b6ba1f0d,61523aa74b55c19b1bc7e98f,64243ea964ad7902968065e7,64245df93144aff3b6ba1f0d,60,,,Price of this smartphone contract: £ 667,50,667,138,180,,,,,,,,,
,3481,rating_trial,html-slider-response,143,465066,0.0-143.0,10,1,2023-03-29 15:49:28,e768cdc589c53dece0e422349b441e59,90.214.237.143,"Mozilla/5.0 (iPhone; CPU iPhone OS 15_6_1 like Mac OS X) AppleWebKit/605.1.15 (KHTML, like Gecko) Version/15.6.1 Mobile/15E148 Safari/604.1",iPhone,Safari,15.6.1,iOS,15_6_1,61523aa74b55c19b1bc7e98f,64243ea964ad7902968065e7,64245df93144aff3b6ba1f0d,61523aa74b55c19b1bc7e98f,64243ea964ad7902968065e7,64245df93144aff3b6ba1f0d,27,,,Price of this smartphone contract: £ 869.99,50,869.99,139,180,,,,,,,,,
,2278,rating_trial,html-slider-response,144,467351,0.0-144.0,10,1,2023-03-29 15:49:28,e768cdc589c53dece0e422349b441e59,90.214.237.143,"Mozilla/5.0 (iPhone; CPU iPhone OS 15_6_1 like Mac OS X) AppleWebKit/605.1.15 (KHTML, like Gecko) Version/15.6.1 Mobile/15E148 Safari/604.1",iPhone,Safari,15.6.1,iOS,15_6_1,61523aa74b55c19b1bc7e98f,64243ea964ad7902968065e7,64245df93144aff3b6ba1f0d,61523aa74b55c19b1bc7e98f,64243ea964ad7902968065e7,64245df93144aff3b6ba1f0d,91,,,Price of this smartphone contract: £ 528,50,528,140,180,,,,,,,,,
,2361,rating_trial,html-slider-response,145,469719,0.0-145.0,10,1,2023-03-29 15:49:28,e768cdc589c53dece0e422349b441e59,90.214.237.143,"Mozilla/5.0 (iPhone; CPU iPhone OS 15_6_1 like Mac OS X) AppleWebKit/605.1.15 (KHTML, like Gecko) Version/15.6.1 Mobile/15E148 Safari/604.1",iPhone,Safari,15.6.1,iOS,15_6_1,61523aa74b55c19b1bc7e98f,64243ea964ad7902968065e7,64245df93144aff3b6ba1f0d,61523aa74b55c19b1bc7e98f,64243ea964ad7902968065e7,64245df93144aff3b6ba1f0d,18,,,Price of this smartphone contract: £ 801.99,50,801.99,141,180,,,,,,,,,
,2007,rating_trial,html-slider-response,146,471734,0.0-146.0,10,1,2023-03-29 15:49:28,e768cdc589c53dece0e422349b441e59,90.214.237.143,"Mozilla/5.0 (iPhone; CPU iPhone OS 15_6_1 like Mac OS X) AppleWebKit/605.1.15 (KHTML, like Gecko) Version/15.6.1 Mobile/15E148 Safari/604.1",iPhone,Safari,15.6.1,iOS,15_6_1,61523aa74b55c19b1bc7e98f,64243ea964ad7902968065e7,64245df93144aff3b6ba1f0d,61523aa74b55c19b1bc7e98f,64243ea964ad7902968065e7,64245df93144aff3b6ba1f0d,24,,,Price of this smartphone contract: £ 835,50,835,142,180,,,,,,,,,
,2619,rating_trial,html-slider-response,147,474361,0.0-147.0,10,1,2023-03-29 15:49:28,e768cdc589c53dece0e422349b441e59,90.214.237.143,"Mozilla/5.0 (iPhone; CPU iPhone OS 15_6_1 like Mac OS X) AppleWebKit/605.1.15 (KHTML, like Gecko) Version/15.6.1 Mobile/15E148 Safari/604.1",iPhone,Safari,15.6.1,iOS,15_6_1,61523aa74b55c19b1bc7e98f,64243ea964ad7902968065e7,64245df93144aff3b6ba1f0d,61523aa74b55c19b1bc7e98f,64243ea964ad7902968065e7,64245df93144aff3b6ba1f0d,0,,,Price of this smartphone contract: £ 1763.99,50,1763.99,143,180,,,,,,,,,
,1705,rating_trial,html-slider-response,148,476075,0.0-148.0,10,1,2023-03-29 15:49:28,e768cdc589c53dece0e422349b441e59,90.214.237.143,"Mozilla/5.0 (iPhone; CPU iPhone OS 15_6_1 like Mac OS X) AppleWebKit/605.1.15 (KHTML, like Gecko) Version/15.6.1 Mobile/15E148 Safari/604.1",iPhone,Safari,15.6.1,iOS,15_6_1,61523aa74b55c19b1bc7e98f,64243ea964ad7902968065e7,64245df93144aff3b6ba1f0d,61523aa74b55c19b1bc7e98f,64243ea964ad7902968065e7,64245df93144aff3b6ba1f0d,100,,,Price of this smartphone contract: £ 432,50,432,144,180,,,,,,,,,
,3562,rating_trial,html-slider-response,149,479645,0.0-149.0,10,1,2023-03-29 15:49:28,e768cdc589c53dece0e422349b441e59,90.214.237.143,"Mozilla/5.0 (iPhone; CPU iPhone OS 15_6_1 like Mac OS X) AppleWebKit/605.1.15 (KHTML, like Gecko) Version/15.6.1 Mobile/15E148 Safari/604.1",iPhone,Safari,15.6.1,iOS,15_6_1,61523aa74b55c19b1bc7e98f,64243ea964ad7902968065e7,64245df93144aff3b6ba1f0d,61523aa74b55c19b1bc7e98f,64243ea964ad7902968065e7,64245df93144aff3b6ba1f0d,21,,,Price of this smartphone contract: £ 875.99,50,875.99,145,180,,,,,,,,,
,1639,rating_trial,html-slider-response,150,481293,0.0-150.0,10,1,2023-03-29 15:49:28,e768cdc589c53dece0e422349b441e59,90.214.237.143,"Mozilla/5.0 (iPhone; CPU iPhone OS 15_6_1 like Mac OS X) AppleWebKit/605.1.15 (KHTML, like Gecko) Version/15.6.1 Mobile/15E148 Safari/604.1",iPhone,Safari,15.6.1,iOS,15_6_1,61523aa74b55c19b1bc7e98f,64243ea964ad7902968065e7,64245df93144aff3b6ba1f0d,61523aa74b55c19b1bc7e98f,64243ea964ad7902968065e7,64245df93144aff3b6ba1f0d,17,,,Price of this smartphone contract: £ 893.99,50,893.99,146,180,,,,,,,,,
,1415,rating_trial,html-slider-response,151,482718,0.0-151.0,10,1,2023-03-29 15:49:28,e768cdc589c53dece0e422349b441e59,90.214.237.143,"Mozilla/5.0 (iPhone; CPU iPhone OS 15_6_1 like Mac OS X) AppleWebKit/605.1.15 (KHTML, like Gecko) Version/15.6.1 Mobile/15E148 Safari/604.1",iPhone,Safari,15.6.1,iOS,15_6_1,61523aa74b55c19b1bc7e98f,64243ea964ad7902968065e7,64245df93144aff3b6ba1f0d,61523aa74b55c19b1bc7e98f,64243ea964ad7902968065e7,64245df93144aff3b6ba1f0d,77,,,Price of this smartphone contract: £ 551.76,50,551.76,147,180,,,,,,,,,
,1516,rating_trial,html-slider-response,152,484242,0.0-152.0,10,1,2023-03-29 15:49:28,e768cdc589c53dece0e422349b441e59,90.214.237.143,"Mozilla/5.0 (iPhone; CPU iPhone OS 15_6_1 like Mac OS X) AppleWebKit/605.1.15 (KHTML, like Gecko) Version/15.6.1 Mobile/15E148 Safari/604.1",iPhone,Safari,15.6.1,iOS,15_6_1,61523aa74b55c19b1bc7e98f,64243ea964ad7902968065e7,64245df93144aff3b6ba1f0d,61523aa74b55c19b1bc7e98f,64243ea964ad7902968065e7,64245df93144aff3b6ba1f0d,16,,,Price of this smartphone contract: £ 1250,50,1250,148,180,,,,,,,,,
,2539,rating_trial,html-slider-response,153,486791,0.0-153.0,10,1,2023-03-29 15:49:28,e768cdc589c53dece0e422349b441e59,90.214.237.143,"Mozilla/5.0 (iPhone; CPU iPhone OS 15_6_1 like Mac OS X) AppleWebKit/605.1.15 (KHTML, like Gecko) Version/15.6.1 Mobile/15E148 Safari/604.1",iPhone,Safari,15.6.1,iOS,15_6_1,61523aa74b55c19b1bc7e98f,64243ea964ad7902968065e7,64245df93144aff3b6ba1f0d,61523aa74b55c19b1bc7e98f,64243ea964ad7902968065e7,64245df93144aff3b6ba1f0d,23,,,Price of this smartphone contract: £ 893.99,50,893.99,149,180,,,,,,,,,
,1587,rating_trial,html-slider-response,154,488385,0.0-154.0,10,1,2023-03-29 15:49:28,e768cdc589c53dece0e422349b441e59,90.214.237.143,"Mozilla/5.0 (iPhone; CPU iPhone OS 15_6_1 like Mac OS X) AppleWebKit/605.1.15 (KHTML, like Gecko) Version/15.6.1 Mobile/15E148 Safari/604.1",iPhone,Safari,15.6.1,iOS,15_6_1,61523aa74b55c19b1bc7e98f,64243ea964ad7902968065e7,64245df93144aff3b6ba1f0d,61523aa74b55c19b1bc7e98f,64243ea964ad7902968065e7,64245df93144aff3b6ba1f0d,60,,,Price of this smartphone contract: £ 673.99,50,673.99,150,180,,,,,,,,,
,1454,rating_trial,html-slider-response,155,489849,0.0-155.0,10,1,2023-03-29 15:49:28,e768cdc589c53dece0e422349b441e59,90.214.237.143,"Mozilla/5.0 (iPhone; CPU iPhone OS 15_6_1 like Mac OS X) AppleWebKit/605.1.15 (KHTML, like Gecko) Version/15.6.1 Mobile/15E148 Safari/604.1",iPhone,Safari,15.6.1,iOS,15_6_1,61523aa74b55c19b1bc7e98f,64243ea964ad7902968065e7,64245df93144aff3b6ba1f0d,61523aa74b55c19b1bc7e98f,64243ea964ad7902968065e7,64245df93144aff3b6ba1f0d,4,,,Price of this smartphone contract: £ 1322,50,1322,151,180,,,,,,,,,
,2252,rating_trial,html-slider-response,156,492109,0.0-156.0,10,1,2023-03-29 15:49:28,e768cdc589c53dece0e422349b441e59,90.214.237.143,"Mozilla/5.0 (iPhone; CPU iPhone OS 15_6_1 like Mac OS X) AppleWebKit/605.1.15 (KHTML, like Gecko) Version/15.6.1 Mobile/15E148 Safari/604.1",iPhone,Safari,15.6.1,iOS,15_6_1,61523aa74b55c19b1bc7e98f,64243ea964ad7902968065e7,64245df93144aff3b6ba1f0d,61523aa74b55c19b1bc7e98f,64243ea964ad7902968065e7,64245df93144aff3b6ba1f0d,39,,,Price of this smartphone contract: £ 715,50,715,152,180,,,,,,,,,
,1816,rating_trial,html-slider-response,157,493934,0.0-157.0,10,1,2023-03-29 15:49:28,e768cdc589c53dece0e422349b441e59,90.214.237.143,"Mozilla/5.0 (iPhone; CPU iPhone OS 15_6_1 like Mac OS X) AppleWebKit/605.1.15 (KHTML, like Gecko) Version/15.6.1 Mobile/15E148 Safari/604.1",iPhone,Safari,15.6.1,iOS,15_6_1,61523aa74b55c19b1bc7e98f,64243ea964ad7902968065e7,64245df93144aff3b6ba1f0d,61523aa74b55c19b1bc7e98f,64243ea964ad7902968065e7,64245df93144aff3b6ba1f0d,8,,,Price of this smartphone contract: £ 1008,50,1008,153,180,,,,,,,,,
,1725,rating_trial,html-slider-response,158,495666,0.0-158.0,10,1,2023-03-29 15:49:28,e768cdc589c53dece0e422349b441e59,90.214.237.143,"Mozilla/5.0 (iPhone; CPU iPhone OS 15_6_1 like Mac OS X) AppleWebKit/605.1.15 (KHTML, like Gecko) Version/15.6.1 Mobile/15E148 Safari/604.1",iPhone,Safari,15.6.1,iOS,15_6_1,61523aa74b55c19b1bc7e98f,64243ea964ad7902968065e7,64245df93144aff3b6ba1f0d,61523aa74b55c19b1bc7e98f,64243ea964ad7902968065e7,64245df93144aff3b6ba1f0d,18,,,Price of this smartphone contract: £ 912,50,912,154,180,,,,,,,,,
,1542,rating_trial,html-slider-response,159,497217,0.0-159.0,10,1,2023-03-29 15:49:28,e768cdc589c53dece0e422349b441e59,90.214.237.143,"Mozilla/5.0 (iPhone; CPU iPhone OS 15_6_1 like Mac OS X) AppleWebKit/605.1.15 (KHTML, like Gecko) Version/15.6.1 Mobile/15E148 Safari/604.1",iPhone,Safari,15.6.1,iOS,15_6_1,61523aa74b55c19b1bc7e98f,64243ea964ad7902968065e7,64245df93144aff3b6ba1f0d,61523aa74b55c19b1bc7e98f,64243ea964ad7902968065e7,64245df93144aff3b6ba1f0d,30,,,Price of this smartphone contract: £ 811,50,811,155,180,,,,,,,,,
,1651,rating_trial,html-slider-response,160,498876,0.0-160.0,10,1,2023-03-29 15:49:28,e768cdc589c53dece0e422349b441e59,90.214.237.143,"Mozilla/5.0 (iPhone; CPU iPhone OS 15_6_1 like Mac OS X) AppleWebKit/605.1.15 (KHTML, like Gecko) Version/15.6.1 Mobile/15E148 Safari/604.1",iPhone,Safari,15.6.1,iOS,15_6_1,61523aa74b55c19b1bc7e98f,64243ea964ad7902968065e7,64245df93144aff3b6ba1f0d,61523aa74b55c19b1bc7e98f,64243ea964ad7902968065e7,64245df93144aff3b6ba1f0d,55,,,Price of this smartphone contract: £ 646.08,50,646.08,156,180,,,,,,,,,
,1462,rating_trial,html-slider-response,161,500349,0.0-161.0,10,1,2023-03-29 15:49:28,e768cdc589c53dece0e422349b441e59,90.214.237.143,"Mozilla/5.0 (iPhone; CPU iPhone OS 15_6_1 like Mac OS X) AppleWebKit/605.1.15 (KHTML, like Gecko) Version/15.6.1 Mobile/15E148 Safari/604.1",iPhone,Safari,15.6.1,iOS,15_6_1,61523aa74b55c19b1bc7e98f,64243ea964ad7902968065e7,64245df93144aff3b6ba1f0d,61523aa74b55c19b1bc7e98f,64243ea964ad7902968065e7,64245df93144aff3b6ba1f0d,37,,,Price of this smartphone contract: £ 795.99,50,795.99,157,180,,,,,,,,,
,1434,rating_trial,html-slider-response,162,501793,0.0-162.0,10,1,2023-03-29 15:49:28,e768cdc589c53dece0e422349b441e59,90.214.237.143,"Mozilla/5.0 (iPhone; CPU iPhone OS 15_6_1 like Mac OS X) AppleWebKit/605.1.15 (KHTML, like Gecko) Version/15.6.1 Mobile/15E148 Safari/604.1",iPhone,Safari,15.6.1,iOS,15_6_1,61523aa74b55c19b1bc7e98f,64243ea964ad7902968065e7,64245df93144aff3b6ba1f0d,61523aa74b55c19b1bc7e98f,64243ea964ad7902968065e7,64245df93144aff3b6ba1f0d,33,,,Price of this smartphone contract: £ 825.99,50,825.99,158,180,,,,,,,,,
,1373,rating_trial,html-slider-response,163,503177,0.0-163.0,10,1,2023-03-29 15:49:28,e768cdc589c53dece0e422349b441e59,90.214.237.143,"Mozilla/5.0 (iPhone; CPU iPhone OS 15_6_1 like Mac OS X) AppleWebKit/605.1.15 (KHTML, like Gecko) Version/15.6.1 Mobile/15E148 Safari/604.1",iPhone,Safari,15.6.1,iOS,15_6_1,61523aa74b55c19b1bc7e98f,64243ea964ad7902968065e7,64245df93144aff3b6ba1f0d,61523aa74b55c19b1bc7e98f,64243ea964ad7902968065e7,64245df93144aff3b6ba1f0d,18,,,Price of this smartphone contract: £ 1083,50,1083,159,180,,,,,,,,,
,1338,rating_trial,html-slider-response,164,504524,0.0-164.0,10,1,2023-03-29 15:49:28,e768cdc589c53dece0e422349b441e59,90.214.237.143,"Mozilla/5.0 (iPhone; CPU iPhone OS 15_6_1 like Mac OS X) AppleWebKit/605.1.15 (KHTML, like Gecko) Version/15.6.1 Mobile/15E148 Safari/604.1",iPhone,Safari,15.6.1,iOS,15_6_1,61523aa74b55c19b1bc7e98f,64243ea964ad7902968065e7,64245df93144aff3b6ba1f0d,61523aa74b55c19b1bc7e98f,64243ea964ad7902968065e7,64245df93144aff3b6ba1f0d,0,,,Price of this smartphone contract: £ 1709,50,1709,160,180,,,,,,,,,
,1286,rating_trial,html-slider-response,165,505818,0.0-165.0,10,1,2023-03-29 15:49:28,e768cdc589c53dece0e422349b441e59,90.214.237.143,"Mozilla/5.0 (iPhone; CPU iPhone OS 15_6_1 like Mac OS X) AppleWebKit/605.1.15 (KHTML, like Gecko) Version/15.6.1 Mobile/15E148 Safari/604.1",iPhone,Safari,15.6.1,iOS,15_6_1,61523aa74b55c19b1bc7e98f,64243ea964ad7902968065e7,64245df93144aff3b6ba1f0d,61523aa74b55c19b1bc7e98f,64243ea964ad7902968065e7,64245df93144aff3b6ba1f0d,38,,,Price of this smartphone contract: £ 843,50,843,161,180,,,,,,,,,
,1815,rating_trial,html-slider-response,166,507642,0.0-166.0,10,1,2023-03-29 15:49:28,e768cdc589c53dece0e422349b441e59,90.214.237.143,"Mozilla/5.0 (iPhone; CPU iPhone OS 15_6_1 like Mac OS X) AppleWebKit/605.1.15 (KHTML, like Gecko) Version/15.6.1 Mobile/15E148 Safari/604.1",iPhone,Safari,15.6.1,iOS,15_6_1,61523aa74b55c19b1bc7e98f,64243ea964ad7902968065e7,64245df93144aff3b6ba1f0d,61523aa74b55c19b1bc7e98f,64243ea964ad7902968065e7,64245df93144aff3b6ba1f0d,100,,,Price of this smartphone contract: £ 359.76,50,359.76,162,180,,,,,,,,,
,1515,rating_trial,html-slider-response,167,509167,0.0-167.0,10,1,2023-03-29 15:49:28,e768cdc589c53dece0e422349b441e59,90.214.237.143,"Mozilla/5.0 (iPhone; CPU iPhone OS 15_6_1 like Mac OS X) AppleWebKit/605.1.15 (KHTML, like Gecko) Version/15.6.1 Mobile/15E148 Safari/604.1",iPhone,Safari,15.6.1,iOS,15_6_1,61523aa74b55c19b1bc7e98f,64243ea964ad7902968065e7,64245df93144aff3b6ba1f0d,61523aa74b55c19b1bc7e98f,64243ea964ad7902968065e7,64245df93144aff3b6ba1f0d,14,,,Price of this smartphone contract: £ 887.99,50,887.99,163,180,,,,,,,,,
,1514,rating_trial,html-slider-response,168,510689,0.0-168.0,10,1,2023-03-29 15:49:28,e768cdc589c53dece0e422349b441e59,90.214.237.143,"Mozilla/5.0 (iPhone; CPU iPhone OS 15_6_1 like Mac OS X) AppleWebKit/605.1.15 (KHTML, like Gecko) Version/15.6.1 Mobile/15E148 Safari/604.1",iPhone,Safari,15.6.1,iOS,15_6_1,61523aa74b55c19b1bc7e98f,64243ea964ad7902968065e7,64245df93144aff3b6ba1f0d,61523aa74b55c19b1bc7e98f,64243ea964ad7902968065e7,64245df93144aff3b6ba1f0d,0,,,Price of this smartphone contract: £ 1133.99,50,1133.99,164,180,,,,,,,,,
,11342,rating_trial,html-slider-response,169,522040,0.0-169.0,10,1,2023-03-29 15:49:28,e768cdc589c53dece0e422349b441e59,90.214.237.143,"Mozilla/5.0 (iPhone; CPU iPhone OS 15_6_1 like Mac OS X) AppleWebKit/605.1.15 (KHTML, like Gecko) Version/15.6.1 Mobile/15E148 Safari/604.1",iPhone,Safari,15.6.1,iOS,15_6_1,61523aa74b55c19b1bc7e98f,64243ea964ad7902968065e7,64245df93144aff3b6ba1f0d,61523aa74b55c19b1bc7e98f,64243ea964ad7902968065e7,64245df93144aff3b6ba1f0d,65,,,Price of this smartphone contract: £ 673.99,50,673.99,165,180,,,,,,,,,
,1314,rating_trial,html-slider-response,170,523365,0.0-170.0,10,1,2023-03-29 15:49:28,e768cdc589c53dece0e422349b441e59,90.214.237.143,"Mozilla/5.0 (iPhone; CPU iPhone OS 15_6_1 like Mac OS X) AppleWebKit/605.1.15 (KHTML, like Gecko) Version/15.6.1 Mobile/15E148 Safari/604.1",iPhone,Safari,15.6.1,iOS,15_6_1,61523aa74b55c19b1bc7e98f,64243ea964ad7902968065e7,64245df93144aff3b6ba1f0d,61523aa74b55c19b1bc7e98f,64243ea964ad7902968065e7,64245df93144aff3b6ba1f0d,3,,,Price of this smartphone contract: £ 1187.99,50,1187.99,166,180,,,,,,,,,
,1233,rating_trial,html-slider-response,171,524607,0.0-171.0,10,1,2023-03-29 15:49:28,e768cdc589c53dece0e422349b441e59,90.214.237.143,"Mozilla/5.0 (iPhone; CPU iPhone OS 15_6_1 like Mac OS X) AppleWebKit/605.1.15 (KHTML, like Gecko) Version/15.6.1 Mobile/15E148 Safari/604.1",iPhone,Safari,15.6.1,iOS,15_6_1,61523aa74b55c19b1bc7e98f,64243ea964ad7902968065e7,64245df93144aff3b6ba1f0d,61523aa74b55c19b1bc7e98f,64243ea964ad7902968065e7,64245df93144aff3b6ba1f0d,19,,,Price of this smartphone contract: £ 865.99,50,865.99,167,180,,,,,,,,,
,1290,rating_trial,html-slider-response,172,525906,0.0-172.0,10,1,2023-03-29 15:49:28,e768cdc589c53dece0e422349b441e59,90.214.237.143,"Mozilla/5.0 (iPhone; CPU iPhone OS 15_6_1 like Mac OS X) AppleWebKit/605.1.15 (KHTML, like Gecko) Version/15.6.1 Mobile/15E148 Safari/604.1",iPhone,Safari,15.6.1,iOS,15_6_1,61523aa74b55c19b1bc7e98f,64243ea964ad7902968065e7,64245df93144aff3b6ba1f0d,61523aa74b55c19b1bc7e98f,64243ea964ad7902968065e7,64245df93144aff3b6ba1f0d,0,,,Price of this smartphone contract: £ 1155.99,50,1155.99,168,180,,,,,,,,,
,1411,rating_trial,html-slider-response,173,527326,0.0-173.0,10,1,2023-03-29 15:49:28,e768cdc589c53dece0e422349b441e59,90.214.237.143,"Mozilla/5.0 (iPhone; CPU iPhone OS 15_6_1 like Mac OS X) AppleWebKit/605.1.15 (KHTML, like Gecko) Version/15.6.1 Mobile/15E148 Safari/604.1",iPhone,Safari,15.6.1,iOS,15_6_1,61523aa74b55c19b1bc7e98f,64243ea964ad7902968065e7,64245df93144aff3b6ba1f0d,61523aa74b55c19b1bc7e98f,64243ea964ad7902968065e7,64245df93144aff3b6ba1f0d,32,,,Price of this smartphone contract: £ 749.99,50,749.99,169,180,,,,,,,,,
,1287,rating_trial,html-slider-response,174,528624,0.0-174.0,10,1,2023-03-29 15:49:28,e768cdc589c53dece0e422349b441e59,90.214.237.143,"Mozilla/5.0 (iPhone; CPU iPhone OS 15_6_1 like Mac OS X) AppleWebKit/605.1.15 (KHTML, like Gecko) Version/15.6.1 Mobile/15E148 Safari/604.1",iPhone,Safari,15.6.1,iOS,15_6_1,61523aa74b55c19b1bc7e98f,64243ea964ad7902968065e7,64245df93144aff3b6ba1f0d,61523aa74b55c19b1bc7e98f,64243ea964ad7902968065e7,64245df93144aff3b6ba1f0d,19,,,Price of this smartphone contract: £ 869.99,50,869.99,170,180,,,,,,,,,
,1341,rating_trial,html-slider-response,175,529976,0.0-175.0,10,1,2023-03-29 15:49:28,e768cdc589c53dece0e422349b441e59,90.214.237.143,"Mozilla/5.0 (iPhone; CPU iPhone OS 15_6_1 like Mac OS X) AppleWebKit/605.1.15 (KHTML, like Gecko) Version/15.6.1 Mobile/15E148 Safari/604.1",iPhone,Safari,15.6.1,iOS,15_6_1,61523aa74b55c19b1bc7e98f,64243ea964ad7902968065e7,64245df93144aff3b6ba1f0d,61523aa74b55c19b1bc7e98f,64243ea964ad7902968065e7,64245df93144aff3b6ba1f0d,12,,,Price of this smartphone contract: £ 909.99,50,909.99,171,180,,,,,,,,,
,11603,rating_trial,html-slider-response,176,541587,0.0-176.0,10,1,2023-03-29 15:49:28,e768cdc589c53dece0e422349b441e59,90.214.237.143,"Mozilla/5.0 (iPhone; CPU iPhone OS 15_6_1 like Mac OS X) AppleWebKit/605.1.15 (KHTML, like Gecko) Version/15.6.1 Mobile/15E148 Safari/604.1",iPhone,Safari,15.6.1,iOS,15_6_1,61523aa74b55c19b1bc7e98f,64243ea964ad7902968065e7,64245df93144aff3b6ba1f0d,61523aa74b55c19b1bc7e98f,64243ea964ad7902968065e7,64245df93144aff3b6ba1f0d,69,,,Price of this smartphone contract: £ 695.76,50,695.76,172,180,,,,,,,,,
,1451,rating_trial,html-slider-response,177,543045,0.0-177.0,10,1,2023-03-29 15:49:28,e768cdc589c53dece0e422349b441e59,90.214.237.143,"Mozilla/5.0 (iPhone; CPU iPhone OS 15_6_1 like Mac OS X) AppleWebKit/605.1.15 (KHTML, like Gecko) Version/15.6.1 Mobile/15E148 Safari/604.1",iPhone,Safari,15.6.1,iOS,15_6_1,61523aa74b55c19b1bc7e98f,64243ea964ad7902968065e7,64245df93144aff3b6ba1f0d,61523aa74b55c19b1bc7e98f,64243ea964ad7902968065e7,64245df93144aff3b6ba1f0d,35,,,Price of this smartphone contract: £ 795.99,50,795.99,173,180,,,,,,,,,
,1301,rating_trial,html-slider-response,178,544353,0.0-178.0,10,1,2023-03-29 15:49:28,e768cdc589c53dece0e422349b441e59,90.214.237.143,"Mozilla/5.0 (iPhone; CPU iPhone OS 15_6_1 like Mac OS X) AppleWebKit/605.1.15 (KHTML, like Gecko) Version/15.6.1 Mobile/15E148 Safari/604.1",iPhone,Safari,15.6.1,iOS,15_6_1,61523aa74b55c19b1bc7e98f,64243ea964ad7902968065e7,64245df93144aff3b6ba1f0d,61523aa74b55c19b1bc7e98f,64243ea964ad7902968065e7,64245df93144aff3b6ba1f0d,36,,,Price of this smartphone contract: £ 769.75,50,769.75,174,180,,,,,,,,,
,3491,rating_trial,html-slider-response,179,547853,0.0-179.0,10,1,2023-03-29 15:49:28,e768cdc589c53dece0e422349b441e59,90.214.237.143,"Mozilla/5.0 (iPhone; CPU iPhone OS 15_6_1 like Mac OS X) AppleWebKit/605.1.15 (KHTML, like Gecko) Version/15.6.1 Mobile/15E148 Safari/604.1",iPhone,Safari,15.6.1,iOS,15_6_1,61523aa74b55c19b1bc7e98f,64243ea964ad7902968065e7,64245df93144aff3b6ba1f0d,61523aa74b55c19b1bc7e98f,64243ea964ad7902968065e7,64245df93144aff3b6ba1f0d,29,,,Price of this smartphone contract: £ 787,50,787,175,180,,,,,,,,,
,3652,rating_trial,html-slider-response,180,551512,0.0-180.0,10,1,2023-03-29 15:49:28,e768cdc589c53dece0e422349b441e59,90.214.237.143,"Mozilla/5.0 (iPhone; CPU iPhone OS 15_6_1 like Mac OS X) AppleWebKit/605.1.15 (KHTML, like Gecko) Version/15.6.1 Mobile/15E148 Safari/604.1",iPhone,Safari,15.6.1,iOS,15_6_1,61523aa74b55c19b1bc7e98f,64243ea964ad7902968065e7,64245df93144aff3b6ba1f0d,61523aa74b55c19b1bc7e98f,64243ea964ad7902968065e7,64245df93144aff3b6ba1f0d,69,,,Price of this smartphone contract: £ 624,50,624,176,180,,,,,,,,,
,1808,rating_trial,html-slider-response,181,553328,0.0-181.0,10,1,2023-03-29 15:49:28,e768cdc589c53dece0e422349b441e59,90.214.237.143,"Mozilla/5.0 (iPhone; CPU iPhone OS 15_6_1 like Mac OS X) AppleWebKit/605.1.15 (KHTML, like Gecko) Version/15.6.1 Mobile/15E148 Safari/604.1",iPhone,Safari,15.6.1,iOS,15_6_1,61523aa74b55c19b1bc7e98f,64243ea964ad7902968065e7,64245df93144aff3b6ba1f0d,61523aa74b55c19b1bc7e98f,64243ea964ad7902968065e7,64245df93144aff3b6ba1f0d,20,,,Price of this smartphone contract: £ 801.99,50,801.99,177,180,,,,,,,,,
,1418,rating_trial,html-slider-response,182,554754,0.0-182.0,10,1,2023-03-29 15:49:28,e768cdc589c53dece0e422349b441e59,90.214.237.143,"Mozilla/5.0 (iPhone; CPU iPhone OS 15_6_1 like Mac OS X) AppleWebKit/605.1.15 (KHTML, like Gecko) Version/15.6.1 Mobile/15E148 Safari/604.1",iPhone,Safari,15.6.1,iOS,15_6_1,61523aa74b55c19b1bc7e98f,64243ea964ad7902968065e7,64245df93144aff3b6ba1f0d,61523aa74b55c19b1bc7e98f,64243ea964ad7902968065e7,64245df93144aff3b6ba1f0d,60,,,Price of this smartphone contract: £ 642.96,50,642.96,178,180,,,,,,,,,
,1483,rating_trial,html-slider-response,183,556245,0.0-183.0,10,1,2023-03-29 15:49:28,e768cdc589c53dece0e422349b441e59,90.214.237.143,"Mozilla/5.0 (iPhone; CPU iPhone OS 15_6_1 like Mac OS X) AppleWebKit/605.1.15 (KHTML, like Gecko) Version/15.6.1 Mobile/15E148 Safari/604.1",iPhone,Safari,15.6.1,iOS,15_6_1,61523aa74b55c19b1bc7e98f,64243ea964ad7902968065e7,64245df93144aff3b6ba1f0d,61523aa74b55c19b1bc7e98f,64243ea964ad7902968065e7,64245df93144aff3b6ba1f0d,0,,,Price of this smartphone contract: £ 1008,50,1008,179,180,,,,,,,,,
"[{""page_index"":0,""viewing_time"":3240},{""page_index"":1,""viewing_time"":3726},{""page_index"":2,""viewing_time"":2540},{""page_index"":3,""viewing_time"":3908},{""page_index"":4,""viewing_time"":2685},{""page_index"":5,""viewing_time"":5119}]",21218,phase2_instructions,instructions,184,577472,0.0-184.0,10,1,2023-03-29 15:49:28,e768cdc589c53dece0e422349b441e59,90.214.237.143,"Mozilla/5.0 (iPhone; CPU iPhone OS 15_6_1 like Mac OS X) AppleWebKit/605.1.15 (KHTML, like Gecko) Version/15.6.1 Mobile/15E148 Safari/604.1",iPhone,Safari,15.6.1,iOS,15_6_1,61523aa74b55c19b1bc7e98f,64243ea964ad7902968065e7,64245df93144aff3b6ba1f0d,61523aa74b55c19b1bc7e98f,64243ea964ad7902968065e7,64245df93144aff3b6ba1f0d,,,,,,,,,,,,,,,,,
,null,sequence_start_screen,html-keyboard-response,185,583485,0.0-185.0,10,1,2023-03-29 15:49:28,e768cdc589c53dece0e422349b441e59,90.214.237.143,"Mozilla/5.0 (iPhone; CPU iPhone OS 15_6_1 like Mac OS X) AppleWebKit/605.1.15 (KHTML, like Gecko) Version/15.6.1 Mobile/15E148 Safari/604.1",iPhone,Safari,15.6.1,iOS,15_6_1,61523aa74b55c19b1bc7e98f,64243ea964ad7902968065e7,64245df93144aff3b6ba1f0d,61523aa74b55c19b1bc7e98f,64243ea964ad7902968065e7,64245df93144aff3b6ba1f0d,null,,,"
                <h3 style=""color: white; text-align: left;"">You will buy a: <strong>SMARTPHONE</strong></h3> <br/> 
                <h3 style=""color: white; text-align: left;"">You can see up to: <strong>12 options</strong></h3> <br/> 
                <h3 style=""color: white; text-align: left;"">It is best to buy a SMARTPHONE</h3> <br/> 
                <h3 style=""color: white; text-align: left"">at the LOWEST PRICE </h3>
