view_history,rt,name,trial_type,trial_index,time_elapsed,internal_node_id,run_id,condition,recorded_at,source_code_version,ip,user_agent,device,browser,browser_version,platform,platform_version,subject_id,study_id,session_id,response,question_order,accuracy,stimulus,slider_start,price,rate_trial,num_ratings,sequence,option,rank,num_options,num_seqs,seq_cond,reward_cond,array,num_draws
"[{""page_index"":0,""viewing_time"":10719},{""page_index"":1,""viewing_time"":21146},{""page_index"":2,""viewing_time"":18092}]",49957,information sheet,instructions,0,49960,0.0-0.0,11,1,2023-02-18 16:09:16,b4b36d01b824878cb522b304283fdf77,109.147.75.184,"Mozilla/5.0 (Windows NT 10.0; Win64; x64) AppleWebKit/537.36 (KHTML, like Gecko) Chrome/110.0.0.0 Safari/537.36 Edg/110.0.1587.49",WebKit,Edge,110.0.1587.49,Windows,10.0,,,,,,,,,,,,,,,,,,,,
,34305,consent_form,survey-multi-select,1,84280,0.0-1.0,11,1,2023-02-18 16:09:16,b4b36d01b824878cb522b304283fdf77,109.147.75.184,"Mozilla/5.0 (Windows NT 10.0; Win64; x64) AppleWebKit/537.36 (KHTML, like Gecko) Chrome/110.0.0.0 Safari/537.36 Edg/110.0.1587.49",WebKit,Edge,110.0.1587.49,Windows,10.0,,,,"{""Q0"":[""<p style=\""font-size: 12pt;\"">I agree</p>""],""Q1"":[""<p style=\""font-size: 12pt;\"">I agree</p>""],""Q2"":[""<p style=\""font-size: 12pt;\"">I agree</p>""],""Q3"":[""<p style=\""font-size: 12pt;\"">I agree</p>""],""Q4"":[""<p style=\""font-size: 12pt;\"">I agree</p>""],""Q5"":[""<p style=\""font-size: 12pt;\"">I agree</p>""],""Q6"":[""<p style=\""font-size: 12pt;\"">I agree</p>""]}","[0,1,2,3,4,5,6]",,,,,,,,,,,,,,,
,9262,demographics_survey,survey,2,93660,0.0-2.0,11,1,2023-02-18 16:09:16,b4b36d01b824878cb522b304283fdf77,109.147.75.184,"Mozilla/5.0 (Windows NT 10.0; Win64; x64) AppleWebKit/537.36 (KHTML, like Gecko) Chrome/110.0.0.0 Safari/537.36 Edg/110.0.1587.49",WebKit,Edge,110.0.1587.49,Windows,10.0,,,,"{""P0_Q0"":null,""gender"":""Female"",""age"":""54""}",,[],,,,,,,,,,,,,,
"[{""page_index"":0,""viewing_time"":14448}]",14449,phase1_instructions,instructions,3,108110,0.0-3.0,11,1,2023-02-18 16:09:16,b4b36d01b824878cb522b304283fdf77,109.147.75.184,"Mozilla/5.0 (Windows NT 10.0; Win64; x64) AppleWebKit/537.36 (KHTML, like Gecko) Chrome/110.0.0.0 Safari/537.36 Edg/110.0.1587.49",WebKit,Edge,110.0.1587.49,Windows,10.0,,,,,,,,,,,,,,,,,,,,
,10937,rating_trial,html-slider-response,4,119053,0.0-4.0,11,1,2023-02-18 16:09:16,b4b36d01b824878cb522b304283fdf77,109.147.75.184,"Mozilla/5.0 (Windows NT 10.0; Win64; x64) AppleWebKit/537.36 (KHTML, like Gecko) Chrome/110.0.0.0 Safari/537.36 Edg/110.0.1587.49",WebKit,Edge,110.0.1587.49,Windows,10.0,,,,2,,,Price of this smartphone contract: £ 915,50,915,0,180,,,,,,,,,
,7122,rating_trial,html-slider-response,5,126179,0.0-5.0,11,1,2023-02-18 16:09:16,b4b36d01b824878cb522b304283fdf77,109.147.75.184,"Mozilla/5.0 (Windows NT 10.0; Win64; x64) AppleWebKit/537.36 (KHTML, like Gecko) Chrome/110.0.0.0 Safari/537.36 Edg/110.0.1587.49",WebKit,Edge,110.0.1587.49,Windows,10.0,,,,5,,,Price of this smartphone contract: £ 871.99,50,871.99,1,180,,,,,,,,,
,9950,rating_trial,html-slider-response,6,136131,0.0-6.0,11,1,2023-02-18 16:09:16,b4b36d01b824878cb522b304283fdf77,109.147.75.184,"Mozilla/5.0 (Windows NT 10.0; Win64; x64) AppleWebKit/537.36 (KHTML, like Gecko) Chrome/110.0.0.0 Safari/537.36 Edg/110.0.1587.49",WebKit,Edge,110.0.1587.49,Windows,10.0,,,,7,,,Price of this smartphone contract: £ 887.99,50,887.99,2,180,,,,,,,,,
,8553,rating_trial,html-slider-response,7,144686,0.0-7.0,11,1,2023-02-18 16:09:16,b4b36d01b824878cb522b304283fdf77,109.147.75.184,"Mozilla/5.0 (Windows NT 10.0; Win64; x64) AppleWebKit/537.36 (KHTML, like Gecko) Chrome/110.0.0.0 Safari/537.36 Edg/110.0.1587.49",WebKit,Edge,110.0.1587.49,Windows,10.0,,,,11,,,Price of this smartphone contract: £ 845.99,50,845.99,3,180,,,,,,,,,
,5384,rating_trial,html-slider-response,8,150073,0.0-8.0,11,1,2023-02-18 16:09:16,b4b36d01b824878cb522b304283fdf77,109.147.75.184,"Mozilla/5.0 (Windows NT 10.0; Win64; x64) AppleWebKit/537.36 (KHTML, like Gecko) Chrome/110.0.0.0 Safari/537.36 Edg/110.0.1587.49",WebKit,Edge,110.0.1587.49,Windows,10.0,,,,12,,,Price of this smartphone contract: £ 746.99,50,746.99,4,180,,,,,,,,,
,5837,rating_trial,html-slider-response,9,155912,0.0-9.0,11,1,2023-02-18 16:09:16,b4b36d01b824878cb522b304283fdf77,109.147.75.184,"Mozilla/5.0 (Windows NT 10.0; Win64; x64) AppleWebKit/537.36 (KHTML, like Gecko) Chrome/110.0.0.0 Safari/537.36 Edg/110.0.1587.49",WebKit,Edge,110.0.1587.49,Windows,10.0,,,,56,,,Price of this smartphone contract: £ 383.76,50,383.76,5,180,,,,,,,,,
,5844,rating_trial,html-slider-response,10,161759,0.0-10.0,11,1,2023-02-18 16:09:16,b4b36d01b824878cb522b304283fdf77,109.147.75.184,"Mozilla/5.0 (Windows NT 10.0; Win64; x64) AppleWebKit/537.36 (KHTML, like Gecko) Chrome/110.0.0.0 Safari/537.36 Edg/110.0.1587.49",WebKit,Edge,110.0.1587.49,Windows,10.0,,,,3,,,Price of this smartphone contract: £ 909.99,50,909.99,6,180,,,,,,,,,
,5597,rating_trial,html-slider-response,11,167358,0.0-11.0,11,1,2023-02-18 16:09:16,b4b36d01b824878cb522b304283fdf77,109.147.75.184,"Mozilla/5.0 (Windows NT 10.0; Win64; x64) AppleWebKit/537.36 (KHTML, like Gecko) Chrome/110.0.0.0 Safari/537.36 Edg/110.0.1587.49",WebKit,Edge,110.0.1587.49,Windows,10.0,,,,0,,,Price of this smartphone contract: £ 1065.99,50,1065.99,7,180,,,,,,,,,
,4887,rating_trial,html-slider-response,12,172247,0.0-12.0,11,1,2023-02-18 16:09:16,b4b36d01b824878cb522b304283fdf77,109.147.75.184,"Mozilla/5.0 (Windows NT 10.0; Win64; x64) AppleWebKit/537.36 (KHTML, like Gecko) Chrome/110.0.0.0 Safari/537.36 Edg/110.0.1587.49",WebKit,Edge,110.0.1587.49,Windows,10.0,,,,0,,,Price of this smartphone contract: £ 1691.99,50,1691.99,8,180,,,,,,,,,
,5236,rating_trial,html-slider-response,13,177486,0.0-13.0,11,1,2023-02-18 16:09:16,b4b36d01b824878cb522b304283fdf77,109.147.75.184,"Mozilla/5.0 (Windows NT 10.0; Win64; x64) AppleWebKit/537.36 (KHTML, like Gecko) Chrome/110.0.0.0 Safari/537.36 Edg/110.0.1587.49",WebKit,Edge,110.0.1587.49,Windows,10.0,,,,11,,,Price of this smartphone contract: £ 769.75,50,769.75,9,180,,,,,,,,,
,5266,rating_trial,html-slider-response,14,182750,0.0-14.0,11,1,2023-02-18 16:09:16,b4b36d01b824878cb522b304283fdf77,109.147.75.184,"Mozilla/5.0 (Windows NT 10.0; Win64; x64) AppleWebKit/537.36 (KHTML, like Gecko) Chrome/110.0.0.0 Safari/537.36 Edg/110.0.1587.49",WebKit,Edge,110.0.1587.49,Windows,10.0,,,,3,,,Price of this smartphone contract: £ 893.99,50,893.99,10,180,,,,,,,,,
,5650,rating_trial,html-slider-response,15,188402,0.0-15.0,11,1,2023-02-18 16:09:16,b4b36d01b824878cb522b304283fdf77,109.147.75.184,"Mozilla/5.0 (Windows NT 10.0; Win64; x64) AppleWebKit/537.36 (KHTML, like Gecko) Chrome/110.0.0.0 Safari/537.36 Edg/110.0.1587.49",WebKit,Edge,110.0.1587.49,Windows,10.0,,,,13,,,Price of this smartphone contract: £ 779,50,779,11,180,,,,,,,,,
,5430,rating_trial,html-slider-response,16,193834,0.0-16.0,11,1,2023-02-18 16:09:16,b4b36d01b824878cb522b304283fdf77,109.147.75.184,"Mozilla/5.0 (Windows NT 10.0; Win64; x64) AppleWebKit/537.36 (KHTML, like Gecko) Chrome/110.0.0.0 Safari/537.36 Edg/110.0.1587.49",WebKit,Edge,110.0.1587.49,Windows,10.0,,,,11,,,Price of this smartphone contract: £ 769.75,50,769.75,12,180,,,,,,,,,
,6009,rating_trial,html-slider-response,17,199846,0.0-17.0,11,1,2023-02-18 16:09:16,b4b36d01b824878cb522b304283fdf77,109.147.75.184,"Mozilla/5.0 (Windows NT 10.0; Win64; x64) AppleWebKit/537.36 (KHTML, like Gecko) Chrome/110.0.0.0 Safari/537.36 Edg/110.0.1587.49",WebKit,Edge,110.0.1587.49,Windows,10.0,,,,4,,,Price of this smartphone contract: £ 918.99,50,918.99,13,180,,,,,,,,,
,5168,rating_trial,html-slider-response,18,205016,0.0-18.0,11,1,2023-02-18 16:09:16,b4b36d01b824878cb522b304283fdf77,109.147.75.184,"Mozilla/5.0 (Windows NT 10.0; Win64; x64) AppleWebKit/537.36 (KHTML, like Gecko) Chrome/110.0.0.0 Safari/537.36 Edg/110.0.1587.49",WebKit,Edge,110.0.1587.49,Windows,10.0,,,,8,,,Price of this smartphone contract: £ 835,50,835,14,180,,,,,,,,,
,6574,rating_trial,html-slider-response,19,211594,0.0-19.0,11,1,2023-02-18 16:09:16,b4b36d01b824878cb522b304283fdf77,109.147.75.184,"Mozilla/5.0 (Windows NT 10.0; Win64; x64) AppleWebKit/537.36 (KHTML, like Gecko) Chrome/110.0.0.0 Safari/537.36 Edg/110.0.1587.49",WebKit,Edge,110.0.1587.49,Windows,10.0,,,,7,,,Price of this smartphone contract: £ 801.99,50,801.99,15,180,,,,,,,,,
,6174,rating_trial,html-slider-response,20,217770,0.0-20.0,11,1,2023-02-18 16:09:16,b4b36d01b824878cb522b304283fdf77,109.147.75.184,"Mozilla/5.0 (Windows NT 10.0; Win64; x64) AppleWebKit/537.36 (KHTML, like Gecko) Chrome/110.0.0.0 Safari/537.36 Edg/110.0.1587.49",WebKit,Edge,110.0.1587.49,Windows,10.0,,,,10,,,Price of this smartphone contract: £ 801.99,50,801.99,16,180,,,,,,,,,
,7981,rating_trial,html-slider-response,21,225753,0.0-21.0,11,1,2023-02-18 16:09:16,b4b36d01b824878cb522b304283fdf77,109.147.75.184,"Mozilla/5.0 (Windows NT 10.0; Win64; x64) AppleWebKit/537.36 (KHTML, like Gecko) Chrome/110.0.0.0 Safari/537.36 Edg/110.0.1587.49",WebKit,Edge,110.0.1587.49,Windows,10.0,,,,16,,,Price of this smartphone contract: £ 715,50,715,17,180,,,,,,,,,
,5321,rating_trial,html-slider-response,22,231076,0.0-22.0,11,1,2023-02-18 16:09:16,b4b36d01b824878cb522b304283fdf77,109.147.75.184,"Mozilla/5.0 (Windows NT 10.0; Win64; x64) AppleWebKit/537.36 (KHTML, like Gecko) Chrome/110.0.0.0 Safari/537.36 Edg/110.0.1587.49",WebKit,Edge,110.0.1587.49,Windows,10.0,,,,23,,,Price of this smartphone contract: £ 504,50,504,18,180,,,,,,,,,
,4601,rating_trial,html-slider-response,23,235679,0.0-23.0,11,1,2023-02-18 16:09:16,b4b36d01b824878cb522b304283fdf77,109.147.75.184,"Mozilla/5.0 (Windows NT 10.0; Win64; x64) AppleWebKit/537.36 (KHTML, like Gecko) Chrome/110.0.0.0 Safari/537.36 Edg/110.0.1587.49",WebKit,Edge,110.0.1587.49,Windows,10.0,,,,14,,,Price of this smartphone contract: £ 744,50,744,19,180,,,,,,,,,
,5505,rating_trial,html-slider-response,24,241182,0.0-24.0,11,1,2023-02-18 16:09:16,b4b36d01b824878cb522b304283fdf77,109.147.75.184,"Mozilla/5.0 (Windows NT 10.0; Win64; x64) AppleWebKit/537.36 (KHTML, like Gecko) Chrome/110.0.0.0 Safari/537.36 Edg/110.0.1587.49",WebKit,Edge,110.0.1587.49,Windows,10.0,,,,10,,,Price of this smartphone contract: £ 875.99,50,875.99,20,180,,,,,,,,,
,4901,rating_trial,html-slider-response,25,246085,0.0-25.0,11,1,2023-02-18 16:09:16,b4b36d01b824878cb522b304283fdf77,109.147.75.184,"Mozilla/5.0 (Windows NT 10.0; Win64; x64) AppleWebKit/537.36 (KHTML, like Gecko) Chrome/110.0.0.0 Safari/537.36 Edg/110.0.1587.49",WebKit,Edge,110.0.1587.49,Windows,10.0,,,,0,,,Price of this smartphone contract: £ 1250,50,1250,21,180,,,,,,,,,
,5379,rating_trial,html-slider-response,26,251467,0.0-26.0,11,1,2023-02-18 16:09:16,b4b36d01b824878cb522b304283fdf77,109.147.75.184,"Mozilla/5.0 (Windows NT 10.0; Win64; x64) AppleWebKit/537.36 (KHTML, like Gecko) Chrome/110.0.0.0 Safari/537.36 Edg/110.0.1587.49",WebKit,Edge,110.0.1587.49,Windows,10.0,,,,2,,,Price of this smartphone contract: £ 1061.99,50,1061.99,22,180,,,,,,,,,
,6145,rating_trial,html-slider-response,27,257614,0.0-27.0,11,1,2023-02-18 16:09:16,b4b36d01b824878cb522b304283fdf77,109.147.75.184,"Mozilla/5.0 (Windows NT 10.0; Win64; x64) AppleWebKit/537.36 (KHTML, like Gecko) Chrome/110.0.0.0 Safari/537.36 Edg/110.0.1587.49",WebKit,Edge,110.0.1587.49,Windows,10.0,,,,0,,,Price of this smartphone contract: £ 1083,50,1083,23,180,,,,,,,,,
,4513,rating_trial,html-slider-response,28,262131,0.0-28.0,11,1,2023-02-18 16:09:16,b4b36d01b824878cb522b304283fdf77,109.147.75.184,"Mozilla/5.0 (Windows NT 10.0; Win64; x64) AppleWebKit/537.36 (KHTML, like Gecko) Chrome/110.0.0.0 Safari/537.36 Edg/110.0.1587.49",WebKit,Edge,110.0.1587.49,Windows,10.0,,,,0,,,Price of this smartphone contract: £ 1320,50,1320,24,180,,,,,,,,,
,4578,rating_trial,html-slider-response,29,266711,0.0-29.0,11,1,2023-02-18 16:09:16,b4b36d01b824878cb522b304283fdf77,109.147.75.184,"Mozilla/5.0 (Windows NT 10.0; Win64; x64) AppleWebKit/537.36 (KHTML, like Gecko) Chrome/110.0.0.0 Safari/537.36 Edg/110.0.1587.49",WebKit,Edge,110.0.1587.49,Windows,10.0,,,,9,,,Price of this smartphone contract: £ 779,50,779,25,180,,,,,,,,,
,4978,rating_trial,html-slider-response,30,271693,0.0-30.0,11,1,2023-02-18 16:09:16,b4b36d01b824878cb522b304283fdf77,109.147.75.184,"Mozilla/5.0 (Windows NT 10.0; Win64; x64) AppleWebKit/537.36 (KHTML, like Gecko) Chrome/110.0.0.0 Safari/537.36 Edg/110.0.1587.49",WebKit,Edge,110.0.1587.49,Windows,10.0,,,,3,,,Price of this smartphone contract: £ 917.99,50,917.99,26,180,,,,,,,,,
,5212,rating_trial,html-slider-response,31,276907,0.0-31.0,11,1,2023-02-18 16:09:16,b4b36d01b824878cb522b304283fdf77,109.147.75.184,"Mozilla/5.0 (Windows NT 10.0; Win64; x64) AppleWebKit/537.36 (KHTML, like Gecko) Chrome/110.0.0.0 Safari/537.36 Edg/110.0.1587.49",WebKit,Edge,110.0.1587.49,Windows,10.0,,,,4,,,Price of this smartphone contract: £ 864,50,864,27,180,,,,,,,,,
,4755,rating_trial,html-slider-response,32,281665,0.0-32.0,11,1,2023-02-18 16:09:16,b4b36d01b824878cb522b304283fdf77,109.147.75.184,"Mozilla/5.0 (Windows NT 10.0; Win64; x64) AppleWebKit/537.36 (KHTML, like Gecko) Chrome/110.0.0.0 Safari/537.36 Edg/110.0.1587.49",WebKit,Edge,110.0.1587.49,Windows,10.0,,,,0,,,Price of this smartphone contract: £ 1201.99,50,1201.99,28,180,,,,,,,,,
,5712,rating_trial,html-slider-response,33,287380,0.0-33.0,11,1,2023-02-18 16:09:16,b4b36d01b824878cb522b304283fdf77,109.147.75.184,"Mozilla/5.0 (Windows NT 10.0; Win64; x64) AppleWebKit/537.36 (KHTML, like Gecko) Chrome/110.0.0.0 Safari/537.36 Edg/110.0.1587.49",WebKit,Edge,110.0.1587.49,Windows,10.0,,,,25,,,Price of this smartphone contract: £ 528,50,528,29,180,,,,,,,,,
,4435,rating_trial,html-slider-response,34,291817,0.0-34.0,11,1,2023-02-18 16:09:16,b4b36d01b824878cb522b304283fdf77,109.147.75.184,"Mozilla/5.0 (Windows NT 10.0; Win64; x64) AppleWebKit/537.36 (KHTML, like Gecko) Chrome/110.0.0.0 Safari/537.36 Edg/110.0.1587.49",WebKit,Edge,110.0.1587.49,Windows,10.0,,,,0,,,Price of this smartphone contract: £ 1032,50,1032,30,180,,,,,,,,,
,4710,rating_trial,html-slider-response,35,296530,0.0-35.0,11,1,2023-02-18 16:09:16,b4b36d01b824878cb522b304283fdf77,109.147.75.184,"Mozilla/5.0 (Windows NT 10.0; Win64; x64) AppleWebKit/537.36 (KHTML, like Gecko) Chrome/110.0.0.0 Safari/537.36 Edg/110.0.1587.49",WebKit,Edge,110.0.1587.49,Windows,10.0,,,,20,,,Price of this smartphone contract: £ 624,50,624,31,180,,,,,,,,,
,4110,rating_trial,html-slider-response,36,300656,0.0-36.0,11,1,2023-02-18 16:09:16,b4b36d01b824878cb522b304283fdf77,109.147.75.184,"Mozilla/5.0 (Windows NT 10.0; Win64; x64) AppleWebKit/537.36 (KHTML, like Gecko) Chrome/110.0.0.0 Safari/537.36 Edg/110.0.1587.49",WebKit,Edge,110.0.1587.49,Windows,10.0,,,,0,,,Price of this smartphone contract: £ 1133.99,50,1133.99,32,180,,,,,,,,,
,4182,rating_trial,html-slider-response,37,304841,0.0-37.0,11,1,2023-02-18 16:09:16,b4b36d01b824878cb522b304283fdf77,109.147.75.184,"Mozilla/5.0 (Windows NT 10.0; Win64; x64) AppleWebKit/537.36 (KHTML, like Gecko) Chrome/110.0.0.0 Safari/537.36 Edg/110.0.1587.49",WebKit,Edge,110.0.1587.49,Windows,10.0,,,,0,,,Price of this smartphone contract: £ 1683,50,1683,33,180,,,,,,,,,
,4636,rating_trial,html-slider-response,38,309479,0.0-38.0,11,1,2023-02-18 16:09:16,b4b36d01b824878cb522b304283fdf77,109.147.75.184,"Mozilla/5.0 (Windows NT 10.0; Win64; x64) AppleWebKit/537.36 (KHTML, like Gecko) Chrome/110.0.0.0 Safari/537.36 Edg/110.0.1587.49",WebKit,Edge,110.0.1587.49,Windows,10.0,,,,0,,,Price of this smartphone contract: £ 1225,50,1225,34,180,,,,,,,,,
,4835,rating_trial,html-slider-response,39,314317,0.0-39.0,11,1,2023-02-18 16:09:16,b4b36d01b824878cb522b304283fdf77,109.147.75.184,"Mozilla/5.0 (Windows NT 10.0; Win64; x64) AppleWebKit/537.36 (KHTML, like Gecko) Chrome/110.0.0.0 Safari/537.36 Edg/110.0.1587.49",WebKit,Edge,110.0.1587.49,Windows,10.0,,,,11,,,Price of this smartphone contract: £ 720,50,720,35,180,,,,,,,,,
,4962,rating_trial,html-slider-response,40,319282,0.0-40.0,11,1,2023-02-18 16:09:16,b4b36d01b824878cb522b304283fdf77,109.147.75.184,"Mozilla/5.0 (Windows NT 10.0; Win64; x64) AppleWebKit/537.36 (KHTML, like Gecko) Chrome/110.0.0.0 Safari/537.36 Edg/110.0.1587.49",WebKit,Edge,110.0.1587.49,Windows,10.0,,,,10,,,Price of this smartphone contract: £ 795.99,50,795.99,36,180,,,,,,,,,
,5089,rating_trial,html-slider-response,41,324375,0.0-41.0,11,1,2023-02-18 16:09:16,b4b36d01b824878cb522b304283fdf77,109.147.75.184,"Mozilla/5.0 (Windows NT 10.0; Win64; x64) AppleWebKit/537.36 (KHTML, like Gecko) Chrome/110.0.0.0 Safari/537.36 Edg/110.0.1587.49",WebKit,Edge,110.0.1587.49,Windows,10.0,,,,10,,,Price of this smartphone contract: £ 795,50,795,37,180,,,,,,,,,
,5838,rating_trial,html-slider-response,42,330216,0.0-42.0,11,1,2023-02-18 16:09:16,b4b36d01b824878cb522b304283fdf77,109.147.75.184,"Mozilla/5.0 (Windows NT 10.0; Win64; x64) AppleWebKit/537.36 (KHTML, like Gecko) Chrome/110.0.0.0 Safari/537.36 Edg/110.0.1587.49",WebKit,Edge,110.0.1587.49,Windows,10.0,,,,1,,,Price of this smartphone contract: £ 941.99,50,941.99,38,180,,,,,,,,,
,4811,rating_trial,html-slider-response,43,335031,0.0-43.0,11,1,2023-02-18 16:09:16,b4b36d01b824878cb522b304283fdf77,109.147.75.184,"Mozilla/5.0 (Windows NT 10.0; Win64; x64) AppleWebKit/537.36 (KHTML, like Gecko) Chrome/110.0.0.0 Safari/537.36 Edg/110.0.1587.49",WebKit,Edge,110.0.1587.49,Windows,10.0,,,,63,,,Price of this smartphone contract: £ 359.76,50,359.76,39,180,,,,,,,,,
,4315,rating_trial,html-slider-response,44,339349,0.0-44.0,11,1,2023-02-18 16:09:16,b4b36d01b824878cb522b304283fdf77,109.147.75.184,"Mozilla/5.0 (Windows NT 10.0; Win64; x64) AppleWebKit/537.36 (KHTML, like Gecko) Chrome/110.0.0.0 Safari/537.36 Edg/110.0.1587.49",WebKit,Edge,110.0.1587.49,Windows,10.0,,,,0,,,Price of this smartphone contract: £ 1201.99,50,1201.99,40,180,,,,,,,,,
,4080,rating_trial,html-slider-response,45,343433,0.0-45.0,11,1,2023-02-18 16:09:16,b4b36d01b824878cb522b304283fdf77,109.147.75.184,"Mozilla/5.0 (Windows NT 10.0; Win64; x64) AppleWebKit/537.36 (KHTML, like Gecko) Chrome/110.0.0.0 Safari/537.36 Edg/110.0.1587.49",WebKit,Edge,110.0.1587.49,Windows,10.0,,,,0,,,Price of this smartphone contract: £ 1253.99,50,1253.99,41,180,,,,,,,,,
,4885,rating_trial,html-slider-response,46,348321,0.0-46.0,11,1,2023-02-18 16:09:16,b4b36d01b824878cb522b304283fdf77,109.147.75.184,"Mozilla/5.0 (Windows NT 10.0; Win64; x64) AppleWebKit/537.36 (KHTML, like Gecko) Chrome/110.0.0.0 Safari/537.36 Edg/110.0.1587.49",WebKit,Edge,110.0.1587.49,Windows,10.0,,,,6,,,Price of this smartphone contract: £ 893.99,50,893.99,42,180,,,,,,,,,
,5823,rating_trial,html-slider-response,47,354147,0.0-47.0,11,1,2023-02-18 16:09:16,b4b36d01b824878cb522b304283fdf77,109.147.75.184,"Mozilla/5.0 (Windows NT 10.0; Win64; x64) AppleWebKit/537.36 (KHTML, like Gecko) Chrome/110.0.0.0 Safari/537.36 Edg/110.0.1587.49",WebKit,Edge,110.0.1587.49,Windows,10.0,,,,12,,,Price of this smartphone contract: £ 746.99,50,746.99,43,180,,,,,,,,,
,6155,rating_trial,html-slider-response,48,360305,0.0-48.0,11,1,2023-02-18 16:09:16,b4b36d01b824878cb522b304283fdf77,109.147.75.184,"Mozilla/5.0 (Windows NT 10.0; Win64; x64) AppleWebKit/537.36 (KHTML, like Gecko) Chrome/110.0.0.0 Safari/537.36 Edg/110.0.1587.49",WebKit,Edge,110.0.1587.49,Windows,10.0,,,,27,,,Price of this smartphone contract: £ 600,50,600,44,180,,,,,,,,,
,4312,rating_trial,html-slider-response,49,364616,0.0-49.0,11,1,2023-02-18 16:09:16,b4b36d01b824878cb522b304283fdf77,109.147.75.184,"Mozilla/5.0 (Windows NT 10.0; Win64; x64) AppleWebKit/537.36 (KHTML, like Gecko) Chrome/110.0.0.0 Safari/537.36 Edg/110.0.1587.49",WebKit,Edge,110.0.1587.49,Windows,10.0,,,,33,,,Price of this smartphone contract: £ 571,50,571,45,180,,,,,,,,,
,4432,rating_trial,html-slider-response,50,369051,0.0-50.0,11,1,2023-02-18 16:09:16,b4b36d01b824878cb522b304283fdf77,109.147.75.184,"Mozilla/5.0 (Windows NT 10.0; Win64; x64) AppleWebKit/537.36 (KHTML, like Gecko) Chrome/110.0.0.0 Safari/537.36 Edg/110.0.1587.49",WebKit,Edge,110.0.1587.49,Windows,10.0,,,,19,,,Price of this smartphone contract: £ 723,50,723,46,180,,,,,,,,,
,4515,rating_trial,html-slider-response,51,373570,0.0-51.0,11,1,2023-02-18 16:09:16,b4b36d01b824878cb522b304283fdf77,109.147.75.184,"Mozilla/5.0 (Windows NT 10.0; Win64; x64) AppleWebKit/537.36 (KHTML, like Gecko) Chrome/110.0.0.0 Safari/537.36 Edg/110.0.1587.49",WebKit,Edge,110.0.1587.49,Windows,10.0,,,,21,,,Price of this smartphone contract: £ 715,50,715,47,180,,,,,,,,,
,4972,rating_trial,html-slider-response,52,378546,0.0-52.0,11,1,2023-02-18 16:09:16,b4b36d01b824878cb522b304283fdf77,109.147.75.184,"Mozilla/5.0 (Windows NT 10.0; Win64; x64) AppleWebKit/537.36 (KHTML, like Gecko) Chrome/110.0.0.0 Safari/537.36 Edg/110.0.1587.49",WebKit,Edge,110.0.1587.49,Windows,10.0,,,,36,,,Price of this smartphone contract: £ 590.99,50,590.99,48,180,,,,,,,,,
,6184,rating_trial,html-slider-response,53,384734,0.0-53.0,11,1,2023-02-18 16:09:16,b4b36d01b824878cb522b304283fdf77,109.147.75.184,"Mozilla/5.0 (Windows NT 10.0; Win64; x64) AppleWebKit/537.36 (KHTML, like Gecko) Chrome/110.0.0.0 Safari/537.36 Edg/110.0.1587.49",WebKit,Edge,110.0.1587.49,Windows,10.0,,,,61,,,Price of this smartphone contract: £ 383.76,50,383.76,49,180,,,,,,,,,
,4087,rating_trial,html-slider-response,54,388823,0.0-54.0,11,1,2023-02-18 16:09:16,b4b36d01b824878cb522b304283fdf77,109.147.75.184,"Mozilla/5.0 (Windows NT 10.0; Win64; x64) AppleWebKit/537.36 (KHTML, like Gecko) Chrome/110.0.0.0 Safari/537.36 Edg/110.0.1587.49",WebKit,Edge,110.0.1587.49,Windows,10.0,,,,0,,,Price of this smartphone contract: £ 1115.99,50,1115.99,50,180,,,,,,,,,
,9277,rating_trial,html-slider-response,55,398104,0.0-55.0,11,1,2023-02-18 16:09:16,b4b36d01b824878cb522b304283fdf77,109.147.75.184,"Mozilla/5.0 (Windows NT 10.0; Win64; x64) AppleWebKit/537.36 (KHTML, like Gecko) Chrome/110.0.0.0 Safari/537.36 Edg/110.0.1587.49",WebKit,Edge,110.0.1587.49,Windows,10.0,,,,56,,,Price of this smartphone contract: £ 432,50,432,51,180,,,,,,,,,
,5892,rating_trial,html-slider-response,56,403999,0.0-56.0,11,1,2023-02-18 16:09:16,b4b36d01b824878cb522b304283fdf77,109.147.75.184,"Mozilla/5.0 (Windows NT 10.0; Win64; x64) AppleWebKit/537.36 (KHTML, like Gecko) Chrome/110.0.0.0 Safari/537.36 Edg/110.0.1587.49",WebKit,Edge,110.0.1587.49,Windows,10.0,,,,25,,,Price of this smartphone contract: £ 631.99,50,631.99,52,180,,,,,,,,,
,4259,rating_trial,html-slider-response,57,408263,0.0-57.0,11,1,2023-02-18 16:09:16,b4b36d01b824878cb522b304283fdf77,109.147.75.184,"Mozilla/5.0 (Windows NT 10.0; Win64; x64) AppleWebKit/537.36 (KHTML, like Gecko) Chrome/110.0.0.0 Safari/537.36 Edg/110.0.1587.49",WebKit,Edge,110.0.1587.49,Windows,10.0,,,,28,,,Price of this smartphone contract: £ 642.96,50,642.96,53,180,,,,,,,,,
,4269,rating_trial,html-slider-response,58,412535,0.0-58.0,11,1,2023-02-18 16:09:16,b4b36d01b824878cb522b304283fdf77,109.147.75.184,"Mozilla/5.0 (Windows NT 10.0; Win64; x64) AppleWebKit/537.36 (KHTML, like Gecko) Chrome/110.0.0.0 Safari/537.36 Edg/110.0.1587.49",WebKit,Edge,110.0.1587.49,Windows,10.0,,,,28,,,Price of this smartphone contract: £ 646.08,50,646.08,54,180,,,,,,,,,
,4244,rating_trial,html-slider-response,59,416782,0.0-59.0,11,1,2023-02-18 16:09:16,b4b36d01b824878cb522b304283fdf77,109.147.75.184,"Mozilla/5.0 (Windows NT 10.0; Win64; x64) AppleWebKit/537.36 (KHTML, like Gecko) Chrome/110.0.0.0 Safari/537.36 Edg/110.0.1587.49",WebKit,Edge,110.0.1587.49,Windows,10.0,,,,0,,,Price of this smartphone contract: £ 1139.99,50,1139.99,55,180,,,,,,,,,
,3912,rating_trial,html-slider-response,60,420699,0.0-60.0,11,1,2023-02-18 16:09:16,b4b36d01b824878cb522b304283fdf77,109.147.75.184,"Mozilla/5.0 (Windows NT 10.0; Win64; x64) AppleWebKit/537.36 (KHTML, like Gecko) Chrome/110.0.0.0 Safari/537.36 Edg/110.0.1587.49",WebKit,Edge,110.0.1587.49,Windows,10.0,,,,30,,,Price of this smartphone contract: £ 695.76,50,695.76,56,180,,,,,,,,,
,4968,rating_trial,html-slider-response,61,425671,0.0-61.0,11,1,2023-02-18 16:09:16,b4b36d01b824878cb522b304283fdf77,109.147.75.184,"Mozilla/5.0 (Windows NT 10.0; Win64; x64) AppleWebKit/537.36 (KHTML, like Gecko) Chrome/110.0.0.0 Safari/537.36 Edg/110.0.1587.49",WebKit,Edge,110.0.1587.49,Windows,10.0,,,,0,,,Price of this smartphone contract: £ 1155,50,1155,57,180,,,,,,,,,
,4416,rating_trial,html-slider-response,62,430091,0.0-62.0,11,1,2023-02-18 16:09:16,b4b36d01b824878cb522b304283fdf77,109.147.75.184,"Mozilla/5.0 (Windows NT 10.0; Win64; x64) AppleWebKit/537.36 (KHTML, like Gecko) Chrome/110.0.0.0 Safari/537.36 Edg/110.0.1587.49",WebKit,Edge,110.0.1587.49,Windows,10.0,,,,1,,,Price of this smartphone contract: £ 923.99,50,923.99,58,180,,,,,,,,,
,9097,rating_trial,html-slider-response,63,439192,0.0-63.0,11,1,2023-02-18 16:09:16,b4b36d01b824878cb522b304283fdf77,109.147.75.184,"Mozilla/5.0 (Windows NT 10.0; Win64; x64) AppleWebKit/537.36 (KHTML, like Gecko) Chrome/110.0.0.0 Safari/537.36 Edg/110.0.1587.49",WebKit,Edge,110.0.1587.49,Windows,10.0,,,,3,,,Price of this smartphone contract: £ 935,50,935,59,180,,,,,,,,,
,4099,rating_trial,html-slider-response,64,443297,0.0-64.0,11,1,2023-02-18 16:09:16,b4b36d01b824878cb522b304283fdf77,109.147.75.184,"Mozilla/5.0 (Windows NT 10.0; Win64; x64) AppleWebKit/537.36 (KHTML, like Gecko) Chrome/110.0.0.0 Safari/537.36 Edg/110.0.1587.49",WebKit,Edge,110.0.1587.49,Windows,10.0,,,,44,,,Price of this smartphone contract: £ 551.76,50,551.76,60,180,,,,,,,,,
,4350,rating_trial,html-slider-response,65,447650,0.0-65.0,11,1,2023-02-18 16:09:16,b4b36d01b824878cb522b304283fdf77,109.147.75.184,"Mozilla/5.0 (Windows NT 10.0; Win64; x64) AppleWebKit/537.36 (KHTML, like Gecko) Chrome/110.0.0.0 Safari/537.36 Edg/110.0.1587.49",WebKit,Edge,110.0.1587.49,Windows,10.0,,,,0,,,Price of this smartphone contract: £ 1187.99,50,1187.99,61,180,,,,,,,,,
,4112,rating_trial,html-slider-response,66,451767,0.0-66.0,11,1,2023-02-18 16:09:16,b4b36d01b824878cb522b304283fdf77,109.147.75.184,"Mozilla/5.0 (Windows NT 10.0; Win64; x64) AppleWebKit/537.36 (KHTML, like Gecko) Chrome/110.0.0.0 Safari/537.36 Edg/110.0.1587.49",WebKit,Edge,110.0.1587.49,Windows,10.0,,,,45,,,Price of this smartphone contract: £ 552,50,552,62,180,,,,,,,,,
,6458,rating_trial,html-slider-response,67,458229,0.0-67.0,11,1,2023-02-18 16:09:16,b4b36d01b824878cb522b304283fdf77,109.147.75.184,"Mozilla/5.0 (Windows NT 10.0; Win64; x64) AppleWebKit/537.36 (KHTML, like Gecko) Chrome/110.0.0.0 Safari/537.36 Edg/110.0.1587.49",WebKit,Edge,110.0.1587.49,Windows,10.0,,,,9,,,Price of this smartphone contract: £ 795,50,795,63,180,,,,,,,,,
,6791,rating_trial,html-slider-response,68,465024,0.0-68.0,11,1,2023-02-18 16:09:16,b4b36d01b824878cb522b304283fdf77,109.147.75.184,"Mozilla/5.0 (Windows NT 10.0; Win64; x64) AppleWebKit/537.36 (KHTML, like Gecko) Chrome/110.0.0.0 Safari/537.36 Edg/110.0.1587.49",WebKit,Edge,110.0.1587.49,Windows,10.0,,,,19,,,Price of this smartphone contract: £ 745.99,50,745.99,64,180,,,,,,,,,
,4832,rating_trial,html-slider-response,69,469860,0.0-69.0,11,1,2023-02-18 16:09:16,b4b36d01b824878cb522b304283fdf77,109.147.75.184,"Mozilla/5.0 (Windows NT 10.0; Win64; x64) AppleWebKit/537.36 (KHTML, like Gecko) Chrome/110.0.0.0 Safari/537.36 Edg/110.0.1587.49",WebKit,Edge,110.0.1587.49,Windows,10.0,,,,6,,,Price of this smartphone contract: £ 912,50,912,65,180,,,,,,,,,
,4362,rating_trial,html-slider-response,70,474226,0.0-70.0,11,1,2023-02-18 16:09:16,b4b36d01b824878cb522b304283fdf77,109.147.75.184,"Mozilla/5.0 (Windows NT 10.0; Win64; x64) AppleWebKit/537.36 (KHTML, like Gecko) Chrome/110.0.0.0 Safari/537.36 Edg/110.0.1587.49",WebKit,Edge,110.0.1587.49,Windows,10.0,,,,0,,,Price of this smartphone contract: £ 1691.99,50,1691.99,66,180,,,,,,,,,
,4434,rating_trial,html-slider-response,71,478663,0.0-71.0,11,1,2023-02-18 16:09:16,b4b36d01b824878cb522b304283fdf77,109.147.75.184,"Mozilla/5.0 (Windows NT 10.0; Win64; x64) AppleWebKit/537.36 (KHTML, like Gecko) Chrome/110.0.0.0 Safari/537.36 Edg/110.0.1587.49",WebKit,Edge,110.0.1587.49,Windows,10.0,,,,24,,,Price of this smartphone contract: £ 745.75,50,745.75,67,180,,,,,,,,,
,4353,rating_trial,html-slider-response,72,483022,0.0-72.0,11,1,2023-02-18 16:09:16,b4b36d01b824878cb522b304283fdf77,109.147.75.184,"Mozilla/5.0 (Windows NT 10.0; Win64; x64) AppleWebKit/537.36 (KHTML, like Gecko) Chrome/110.0.0.0 Safari/537.36 Edg/110.0.1587.49",WebKit,Edge,110.0.1587.49,Windows,10.0,,,,53,,,Price of this smartphone contract: £ 480,50,480,68,180,,,,,,,,,
,4143,rating_trial,html-slider-response,73,487170,0.0-73.0,11,1,2023-02-18 16:09:16,b4b36d01b824878cb522b304283fdf77,109.147.75.184,"Mozilla/5.0 (Windows NT 10.0; Win64; x64) AppleWebKit/537.36 (KHTML, like Gecko) Chrome/110.0.0.0 Safari/537.36 Edg/110.0.1587.49",WebKit,Edge,110.0.1587.49,Windows,10.0,,,,0,,,Price of this smartphone contract: £ 1065.99,50,1065.99,69,180,,,,,,,,,
,3764,rating_trial,html-slider-response,74,490938,0.0-74.0,11,1,2023-02-18 16:09:16,b4b36d01b824878cb522b304283fdf77,109.147.75.184,"Mozilla/5.0 (Windows NT 10.0; Win64; x64) AppleWebKit/537.36 (KHTML, like Gecko) Chrome/110.0.0.0 Safari/537.36 Edg/110.0.1587.49",WebKit,Edge,110.0.1587.49,Windows,10.0,,,,54,,,Price of this smartphone contract: £ 432,50,432,70,180,,,,,,,,,
,3858,rating_trial,html-slider-response,75,494800,0.0-75.0,11,1,2023-02-18 16:09:16,b4b36d01b824878cb522b304283fdf77,109.147.75.184,"Mozilla/5.0 (Windows NT 10.0; Win64; x64) AppleWebKit/537.36 (KHTML, like Gecko) Chrome/110.0.0.0 Safari/537.36 Edg/110.0.1587.49",WebKit,Edge,110.0.1587.49,Windows,10.0,,,,45,,,Price of this smartphone contract: £ 528,50,528,71,180,,,,,,,,,
,6092,rating_trial,html-slider-response,76,500898,0.0-76.0,11,1,2023-02-18 16:09:16,b4b36d01b824878cb522b304283fdf77,109.147.75.184,"Mozilla/5.0 (Windows NT 10.0; Win64; x64) AppleWebKit/537.36 (KHTML, like Gecko) Chrome/110.0.0.0 Safari/537.36 Edg/110.0.1587.49",WebKit,Edge,110.0.1587.49,Windows,10.0,,,,21,,,Price of this smartphone contract: £ 792,50,792,72,180,,,,,,,,,
,4413,rating_trial,html-slider-response,77,505316,0.0-77.0,11,1,2023-02-18 16:09:16,b4b36d01b824878cb522b304283fdf77,109.147.75.184,"Mozilla/5.0 (Windows NT 10.0; Win64; x64) AppleWebKit/537.36 (KHTML, like Gecko) Chrome/110.0.0.0 Safari/537.36 Edg/110.0.1587.49",WebKit,Edge,110.0.1587.49,Windows,10.0,,,,0,,,Price of this smartphone contract: £ 1322,50,1322,73,180,,,,,,,,,
,4445,rating_trial,html-slider-response,78,509766,0.0-78.0,11,1,2023-02-18 16:09:16,b4b36d01b824878cb522b304283fdf77,109.147.75.184,"Mozilla/5.0 (Windows NT 10.0; Win64; x64) AppleWebKit/537.36 (KHTML, like Gecko) Chrome/110.0.0.0 Safari/537.36 Edg/110.0.1587.49",WebKit,Edge,110.0.1587.49,Windows,10.0,,,,8,,,Price of this smartphone contract: £ 839.75,50,839.75,74,180,,,,,,,,,
,5107,rating_trial,html-slider-response,79,514877,0.0-79.0,11,1,2023-02-18 16:09:16,b4b36d01b824878cb522b304283fdf77,109.147.75.184,"Mozilla/5.0 (Windows NT 10.0; Win64; x64) AppleWebKit/537.36 (KHTML, like Gecko) Chrome/110.0.0.0 Safari/537.36 Edg/110.0.1587.49",WebKit,Edge,110.0.1587.49,Windows,10.0,,,,34,,,Price of this smartphone contract: £ 631.92,50,631.92,75,180,,,,,,,,,
,4900,rating_trial,html-slider-response,80,519780,0.0-80.0,11,1,2023-02-18 16:09:16,b4b36d01b824878cb522b304283fdf77,109.147.75.184,"Mozilla/5.0 (Windows NT 10.0; Win64; x64) AppleWebKit/537.36 (KHTML, like Gecko) Chrome/110.0.0.0 Safari/537.36 Edg/110.0.1587.49",WebKit,Edge,110.0.1587.49,Windows,10.0,,,,26,,,Price of this smartphone contract: £ 723,50,723,76,180,,,,,,,,,
,4431,rating_trial,html-slider-response,81,524216,0.0-81.0,11,1,2023-02-18 16:09:16,b4b36d01b824878cb522b304283fdf77,109.147.75.184,"Mozilla/5.0 (Windows NT 10.0; Win64; x64) AppleWebKit/537.36 (KHTML, like Gecko) Chrome/110.0.0.0 Safari/537.36 Edg/110.0.1587.49",WebKit,Edge,110.0.1587.49,Windows,10.0,,,,0,,,Price of this smartphone contract: £ 1155.99,50,1155.99,77,180,,,,,,,,,
,3552,rating_trial,html-slider-response,82,527772,0.0-82.0,11,1,2023-02-18 16:09:16,b4b36d01b824878cb522b304283fdf77,109.147.75.184,"Mozilla/5.0 (Windows NT 10.0; Win64; x64) AppleWebKit/537.36 (KHTML, like Gecko) Chrome/110.0.0.0 Safari/537.36 Edg/110.0.1587.49",WebKit,Edge,110.0.1587.49,Windows,10.0,,,,46,,,Price of this smartphone contract: £ 552,50,552,78,180,,,,,,,,,
,4355,rating_trial,html-slider-response,83,532132,0.0-83.0,11,1,2023-02-18 16:09:16,b4b36d01b824878cb522b304283fdf77,109.147.75.184,"Mozilla/5.0 (Windows NT 10.0; Win64; x64) AppleWebKit/537.36 (KHTML, like Gecko) Chrome/110.0.0.0 Safari/537.36 Edg/110.0.1587.49",WebKit,Edge,110.0.1587.49,Windows,10.0,,,,0,,,Price of this smartphone contract: £ 1083,50,1083,79,180,,,,,,,,,
,4111,rating_trial,html-slider-response,84,536249,0.0-84.0,11,1,2023-02-18 16:09:16,b4b36d01b824878cb522b304283fdf77,109.147.75.184,"Mozilla/5.0 (Windows NT 10.0; Win64; x64) AppleWebKit/537.36 (KHTML, like Gecko) Chrome/110.0.0.0 Safari/537.36 Edg/110.0.1587.49",WebKit,Edge,110.0.1587.49,Windows,10.0,,,,36,,,Price of this smartphone contract: £ 667,50,667,80,180,,,,,,,,,
,6744,rating_trial,html-slider-response,85,543001,0.0-85.0,11,1,2023-02-18 16:09:16,b4b36d01b824878cb522b304283fdf77,109.147.75.184,"Mozilla/5.0 (Windows NT 10.0; Win64; x64) AppleWebKit/537.36 (KHTML, like Gecko) Chrome/110.0.0.0 Safari/537.36 Edg/110.0.1587.49",WebKit,Edge,110.0.1587.49,Windows,10.0,,,,14,,,Price of this smartphone contract: £ 798.99,50,798.99,81,180,,,,,,,,,
,5190,rating_trial,html-slider-response,86,548199,0.0-86.0,11,1,2023-02-18 16:09:16,b4b36d01b824878cb522b304283fdf77,109.147.75.184,"Mozilla/5.0 (Windows NT 10.0; Win64; x64) AppleWebKit/537.36 (KHTML, like Gecko) Chrome/110.0.0.0 Safari/537.36 Edg/110.0.1587.49",WebKit,Edge,110.0.1587.49,Windows,10.0,,,,3,,,Price of this smartphone contract: £ 917.99,50,917.99,82,180,,,,,,,,,
,6288,rating_trial,html-slider-response,87,554494,0.0-87.0,11,1,2023-02-18 16:09:16,b4b36d01b824878cb522b304283fdf77,109.147.75.184,"Mozilla/5.0 (Windows NT 10.0; Win64; x64) AppleWebKit/537.36 (KHTML, like Gecko) Chrome/110.0.0.0 Safari/537.36 Edg/110.0.1587.49",WebKit,Edge,110.0.1587.49,Windows,10.0,,,,24,,,Price of this smartphone contract: £ 787,50,787,83,180,,,,,,,,,
,6774,rating_trial,html-slider-response,88,561273,0.0-88.0,11,1,2023-02-18 16:09:16,b4b36d01b824878cb522b304283fdf77,109.147.75.184,"Mozilla/5.0 (Windows NT 10.0; Win64; x64) AppleWebKit/537.36 (KHTML, like Gecko) Chrome/110.0.0.0 Safari/537.36 Edg/110.0.1587.49",WebKit,Edge,110.0.1587.49,Windows,10.0,,,,8,,,Price of this smartphone contract: £ 869.99,50,869.99,84,180,,,,,,,,,
,4613,rating_trial,html-slider-response,89,565891,0.0-89.0,11,1,2023-02-18 16:09:16,b4b36d01b824878cb522b304283fdf77,109.147.75.184,"Mozilla/5.0 (Windows NT 10.0; Win64; x64) AppleWebKit/537.36 (KHTML, like Gecko) Chrome/110.0.0.0 Safari/537.36 Edg/110.0.1587.49",WebKit,Edge,110.0.1587.49,Windows,10.0,,,,0,,,Price of this smartphone contract: £ 1709,50,1709,85,180,,,,,,,,,
,4716,rating_trial,html-slider-response,90,570611,0.0-90.0,11,1,2023-02-18 16:09:16,b4b36d01b824878cb522b304283fdf77,109.147.75.184,"Mozilla/5.0 (Windows NT 10.0; Win64; x64) AppleWebKit/537.36 (KHTML, like Gecko) Chrome/110.0.0.0 Safari/537.36 Edg/110.0.1587.49",WebKit,Edge,110.0.1587.49,Windows,10.0,,,,5,,,Price of this smartphone contract: £ 835,50,835,86,180,,,,,,,,,
,4444,rating_trial,html-slider-response,91,575061,0.0-91.0,11,1,2023-02-18 16:09:16,b4b36d01b824878cb522b304283fdf77,109.147.75.184,"Mozilla/5.0 (Windows NT 10.0; Win64; x64) AppleWebKit/537.36 (KHTML, like Gecko) Chrome/110.0.0.0 Safari/537.36 Edg/110.0.1587.49",WebKit,Edge,110.0.1587.49,Windows,10.0,,,,7,,,Price of this smartphone contract: £ 843,50,843,87,180,,,,,,,,,
,3981,rating_trial,html-slider-response,92,579048,0.0-92.0,11,1,2023-02-18 16:09:16,b4b36d01b824878cb522b304283fdf77,109.147.75.184,"Mozilla/5.0 (Windows NT 10.0; Win64; x64) AppleWebKit/537.36 (KHTML, like Gecko) Chrome/110.0.0.0 Safari/537.36 Edg/110.0.1587.49",WebKit,Edge,110.0.1587.49,Windows,10.0,,,,15,,,Price of this smartphone contract: £ 745.99,50,745.99,88,180,,,,,,,,,
,5163,rating_trial,html-slider-response,93,584215,0.0-93.0,11,1,2023-02-18 16:09:16,b4b36d01b824878cb522b304283fdf77,109.147.75.184,"Mozilla/5.0 (Windows NT 10.0; Win64; x64) AppleWebKit/537.36 (KHTML, like Gecko) Chrome/110.0.0.0 Safari/537.36 Edg/110.0.1587.49",WebKit,Edge,110.0.1587.49,Windows,10.0,,,,25,,,Price of this smartphone contract: £ 667,50,667,89,180,,,,,,,,,
,3812,rating_trial,html-slider-response,94,588032,0.0-94.0,11,1,2023-02-18 16:09:16,b4b36d01b824878cb522b304283fdf77,109.147.75.184,"Mozilla/5.0 (Windows NT 10.0; Win64; x64) AppleWebKit/537.36 (KHTML, like Gecko) Chrome/110.0.0.0 Safari/537.36 Edg/110.0.1587.49",WebKit,Edge,110.0.1587.49,Windows,10.0,,,,0,,,Price of this smartphone contract: £ 1155,50,1155,90,180,,,,,,,,,
,5183,rating_trial,html-slider-response,95,593219,0.0-95.0,11,1,2023-02-18 16:09:16,b4b36d01b824878cb522b304283fdf77,109.147.75.184,"Mozilla/5.0 (Windows NT 10.0; Win64; x64) AppleWebKit/537.36 (KHTML, like Gecko) Chrome/110.0.0.0 Safari/537.36 Edg/110.0.1587.49",WebKit,Edge,110.0.1587.49,Windows,10.0,,,,35,,,Price of this smartphone contract: £ 624,50,624,91,180,,,,,,,,,
,4578,rating_trial,html-slider-response,96,597803,0.0-96.0,11,1,2023-02-18 16:09:16,b4b36d01b824878cb522b304283fdf77,109.147.75.184,"Mozilla/5.0 (Windows NT 10.0; Win64; x64) AppleWebKit/537.36 (KHTML, like Gecko) Chrome/110.0.0.0 Safari/537.36 Edg/110.0.1587.49",WebKit,Edge,110.0.1587.49,Windows,10.0,,,,12,,,Price of this smartphone contract: £ 843,50,843,92,180,,,,,,,,,
,4065,rating_trial,html-slider-response,97,601866,0.0-97.0,11,1,2023-02-18 16:09:16,b4b36d01b824878cb522b304283fdf77,109.147.75.184,"Mozilla/5.0 (Windows NT 10.0; Win64; x64) AppleWebKit/537.36 (KHTML, like Gecko) Chrome/110.0.0.0 Safari/537.36 Edg/110.0.1587.49",WebKit,Edge,110.0.1587.49,Windows,10.0,,,,11,,,Price of this smartphone contract: £ 845.99,50,845.99,93,180,,,,,,,,,
,5602,rating_trial,html-slider-response,98,607475,0.0-98.0,11,1,2023-02-18 16:09:16,b4b36d01b824878cb522b304283fdf77,109.147.75.184,"Mozilla/5.0 (Windows NT 10.0; Win64; x64) AppleWebKit/537.36 (KHTML, like Gecko) Chrome/110.0.0.0 Safari/537.36 Edg/110.0.1587.49",WebKit,Edge,110.0.1587.49,Windows,10.0,,,,15,,,Price of this smartphone contract: £ 749.99,50,749.99,94,180,,,,,,,,,
,3975,rating_trial,html-slider-response,99,611454,0.0-99.0,11,1,2023-02-18 16:09:16,b4b36d01b824878cb522b304283fdf77,109.147.75.184,"Mozilla/5.0 (Windows NT 10.0; Win64; x64) AppleWebKit/537.36 (KHTML, like Gecko) Chrome/110.0.0.0 Safari/537.36 Edg/110.0.1587.49",WebKit,Edge,110.0.1587.49,Windows,10.0,,,,0,,,Price of this smartphone contract: £ 1322,50,1322,95,180,,,,,,,,,
,7696,rating_trial,html-slider-response,100,619156,0.0-100.0,11,1,2023-02-18 16:09:16,b4b36d01b824878cb522b304283fdf77,109.147.75.184,"Mozilla/5.0 (Windows NT 10.0; Win64; x64) AppleWebKit/537.36 (KHTML, like Gecko) Chrome/110.0.0.0 Safari/537.36 Edg/110.0.1587.49",WebKit,Edge,110.0.1587.49,Windows,10.0,,,,0,,,Price of this smartphone contract: £ 1155.99,50,1155.99,96,180,,,,,,,,,
,5818,rating_trial,html-slider-response,101,624980,0.0-101.0,11,1,2023-02-18 16:09:16,b4b36d01b824878cb522b304283fdf77,109.147.75.184,"Mozilla/5.0 (Windows NT 10.0; Win64; x64) AppleWebKit/537.36 (KHTML, like Gecko) Chrome/110.0.0.0 Safari/537.36 Edg/110.0.1587.49",WebKit,Edge,110.0.1587.49,Windows,10.0,,,,23,,,Price of this smartphone contract: £ 768,50,768,97,180,,,,,,,,,
,4311,rating_trial,html-slider-response,102,629297,0.0-102.0,11,1,2023-02-18 16:09:16,b4b36d01b824878cb522b304283fdf77,109.147.75.184,"Mozilla/5.0 (Windows NT 10.0; Win64; x64) AppleWebKit/537.36 (KHTML, like Gecko) Chrome/110.0.0.0 Safari/537.36 Edg/110.0.1587.49",WebKit,Edge,110.0.1587.49,Windows,10.0,,,,31,,,Price of this smartphone contract: £ 631.92,50,631.92,98,180,,,,,,,,,
,3965,rating_trial,html-slider-response,103,633268,0.0-103.0,11,1,2023-02-18 16:09:16,b4b36d01b824878cb522b304283fdf77,109.147.75.184,"Mozilla/5.0 (Windows NT 10.0; Win64; x64) AppleWebKit/537.36 (KHTML, like Gecko) Chrome/110.0.0.0 Safari/537.36 Edg/110.0.1587.49",WebKit,Edge,110.0.1587.49,Windows,10.0,,,,0,,,Price of this smartphone contract: £ 1763.99,50,1763.99,99,180,,,,,,,,,
,4087,rating_trial,html-slider-response,104,637360,0.0-104.0,11,1,2023-02-18 16:09:16,b4b36d01b824878cb522b304283fdf77,109.147.75.184,"Mozilla/5.0 (Windows NT 10.0; Win64; x64) AppleWebKit/537.36 (KHTML, like Gecko) Chrome/110.0.0.0 Safari/537.36 Edg/110.0.1587.49",WebKit,Edge,110.0.1587.49,Windows,10.0,,,,0,,,Price of this smartphone contract: £ 1133.99,50,1133.99,100,180,,,,,,,,,
,4772,rating_trial,html-slider-response,105,642137,0.0-105.0,11,1,2023-02-18 16:09:16,b4b36d01b824878cb522b304283fdf77,109.147.75.184,"Mozilla/5.0 (Windows NT 10.0; Win64; x64) AppleWebKit/537.36 (KHTML, like Gecko) Chrome/110.0.0.0 Safari/537.36 Edg/110.0.1587.49",WebKit,Edge,110.0.1587.49,Windows,10.0,,,,3,,,Price of this smartphone contract: £ 941.99,50,941.99,101,180,,,,,,,,,
,4990,rating_trial,html-slider-response,106,647133,0.0-106.0,11,1,2023-02-18 16:09:16,b4b36d01b824878cb522b304283fdf77,109.147.75.184,"Mozilla/5.0 (Windows NT 10.0; Win64; x64) AppleWebKit/537.36 (KHTML, like Gecko) Chrome/110.0.0.0 Safari/537.36 Edg/110.0.1587.49",WebKit,Edge,110.0.1587.49,Windows,10.0,,,,28,,,Price of this smartphone contract: £ 673.99,50,673.99,102,180,,,,,,,,,
,5718,rating_trial,html-slider-response,107,652857,0.0-107.0,11,1,2023-02-18 16:09:16,b4b36d01b824878cb522b304283fdf77,109.147.75.184,"Mozilla/5.0 (Windows NT 10.0; Win64; x64) AppleWebKit/537.36 (KHTML, like Gecko) Chrome/110.0.0.0 Safari/537.36 Edg/110.0.1587.49",WebKit,Edge,110.0.1587.49,Windows,10.0,,,,10,,,Price of this smartphone contract: £ 799.99,50,799.99,103,180,,,,,,,,,
,3709,rating_trial,html-slider-response,108,656571,0.0-108.0,11,1,2023-02-18 16:09:16,b4b36d01b824878cb522b304283fdf77,109.147.75.184,"Mozilla/5.0 (Windows NT 10.0; Win64; x64) AppleWebKit/537.36 (KHTML, like Gecko) Chrome/110.0.0.0 Safari/537.36 Edg/110.0.1587.49",WebKit,Edge,110.0.1587.49,Windows,10.0,,,,16,,,Price of this smartphone contract: £ 725.99,50,725.99,104,180,,,,,,,,,
,4439,rating_trial,html-slider-response,109,661016,0.0-109.0,11,1,2023-02-18 16:09:16,b4b36d01b824878cb522b304283fdf77,109.147.75.184,"Mozilla/5.0 (Windows NT 10.0; Win64; x64) AppleWebKit/537.36 (KHTML, like Gecko) Chrome/110.0.0.0 Safari/537.36 Edg/110.0.1587.49",WebKit,Edge,110.0.1587.49,Windows,10.0,,,,18,,,Price of this smartphone contract: £ 745.75,50,745.75,105,180,,,,,,,,,
,4040,rating_trial,html-slider-response,110,665066,0.0-110.0,11,1,2023-02-18 16:09:16,b4b36d01b824878cb522b304283fdf77,109.147.75.184,"Mozilla/5.0 (Windows NT 10.0; Win64; x64) AppleWebKit/537.36 (KHTML, like Gecko) Chrome/110.0.0.0 Safari/537.36 Edg/110.0.1587.49",WebKit,Edge,110.0.1587.49,Windows,10.0,,,,68,,,Price of this smartphone contract: £ 359.76,50,359.76,106,180,,,,,,,,,
,3411,rating_trial,html-slider-response,111,668483,0.0-111.0,11,1,2023-02-18 16:09:16,b4b36d01b824878cb522b304283fdf77,109.147.75.184,"Mozilla/5.0 (Windows NT 10.0; Win64; x64) AppleWebKit/537.36 (KHTML, like Gecko) Chrome/110.0.0.0 Safari/537.36 Edg/110.0.1587.49",WebKit,Edge,110.0.1587.49,Windows,10.0,,,,0,,,Price of this smartphone contract: £ 1709,50,1709,107,180,,,,,,,,,
,5302,rating_trial,html-slider-response,112,673791,0.0-112.0,11,1,2023-02-18 16:09:16,b4b36d01b824878cb522b304283fdf77,109.147.75.184,"Mozilla/5.0 (Windows NT 10.0; Win64; x64) AppleWebKit/537.36 (KHTML, like Gecko) Chrome/110.0.0.0 Safari/537.36 Edg/110.0.1587.49",WebKit,Edge,110.0.1587.49,Windows,10.0,,,,8,,,Price of this smartphone contract: £ 811,50,811,108,180,,,,,,,,,
,3438,rating_trial,html-slider-response,113,677234,0.0-113.0,11,1,2023-02-18 16:09:16,b4b36d01b824878cb522b304283fdf77,109.147.75.184,"Mozilla/5.0 (Windows NT 10.0; Win64; x64) AppleWebKit/537.36 (KHTML, like Gecko) Chrome/110.0.0.0 Safari/537.36 Edg/110.0.1587.49",WebKit,Edge,110.0.1587.49,Windows,10.0,,,,0,,,Price of this smartphone contract: £ 1683,50,1683,109,180,,,,,,,,,
,8383,rating_trial,html-slider-response,114,685623,0.0-114.0,11,1,2023-02-18 16:09:16,b4b36d01b824878cb522b304283fdf77,109.147.75.184,"Mozilla/5.0 (Windows NT 10.0; Win64; x64) AppleWebKit/537.36 (KHTML, like Gecko) Chrome/110.0.0.0 Safari/537.36 Edg/110.0.1587.49",WebKit,Edge,110.0.1587.49,Windows,10.0,,,,0,,,Price of this smartphone contract: £ 1229.99,50,1229.99,110,180,,,,,,,,,
,4443,rating_trial,html-slider-response,115,690071,0.0-115.0,11,1,2023-02-18 16:09:16,b4b36d01b824878cb522b304283fdf77,109.147.75.184,"Mozilla/5.0 (Windows NT 10.0; Win64; x64) AppleWebKit/537.36 (KHTML, like Gecko) Chrome/110.0.0.0 Safari/537.36 Edg/110.0.1587.49",WebKit,Edge,110.0.1587.49,Windows,10.0,,,,17,,,Price of this smartphone contract: £ 749.99,50,749.99,111,180,,,,,,,,,
,3928,rating_trial,html-slider-response,116,694004,0.0-116.0,11,1,2023-02-18 16:09:16,b4b36d01b824878cb522b304283fdf77,109.147.75.184,"Mozilla/5.0 (Windows NT 10.0; Win64; x64) AppleWebKit/537.36 (KHTML, like Gecko) Chrome/110.0.0.0 Safari/537.36 Edg/110.0.1587.49",WebKit,Edge,110.0.1587.49,Windows,10.0,,,,9,,,Price of this smartphone contract: £ 871.99,50,871.99,112,180,,,,,,,,,
,3609,rating_trial,html-slider-response,117,697619,0.0-117.0,11,1,2023-02-18 16:09:16,b4b36d01b824878cb522b304283fdf77,109.147.75.184,"Mozilla/5.0 (Windows NT 10.0; Win64; x64) AppleWebKit/537.36 (KHTML, like Gecko) Chrome/110.0.0.0 Safari/537.36 Edg/110.0.1587.49",WebKit,Edge,110.0.1587.49,Windows,10.0,,,,44,,,Price of this smartphone contract: £ 551.76,50,551.76,113,180,,,,,,,,,
,3794,rating_trial,html-slider-response,118,701419,0.0-118.0,11,1,2023-02-18 16:09:16,b4b36d01b824878cb522b304283fdf77,109.147.75.184,"Mozilla/5.0 (Windows NT 10.0; Win64; x64) AppleWebKit/537.36 (KHTML, like Gecko) Chrome/110.0.0.0 Safari/537.36 Edg/110.0.1587.49",WebKit,Edge,110.0.1587.49,Windows,10.0,,,,35,,,Price of this smartphone contract: £ 631.99,50,631.99,114,180,,,,,,,,,
,5117,rating_trial,html-slider-response,119,706542,0.0-119.0,11,1,2023-02-18 16:09:16,b4b36d01b824878cb522b304283fdf77,109.147.75.184,"Mozilla/5.0 (Windows NT 10.0; Win64; x64) AppleWebKit/537.36 (KHTML, like Gecko) Chrome/110.0.0.0 Safari/537.36 Edg/110.0.1587.49",WebKit,Edge,110.0.1587.49,Windows,10.0,,,,48,,,Price of this smartphone contract: £ 480,50,480,115,180,,,,,,,,,
,4250,rating_trial,html-slider-response,120,710797,0.0-120.0,11,1,2023-02-18 16:09:16,b4b36d01b824878cb522b304283fdf77,109.147.75.184,"Mozilla/5.0 (Windows NT 10.0; Win64; x64) AppleWebKit/537.36 (KHTML, like Gecko) Chrome/110.0.0.0 Safari/537.36 Edg/110.0.1587.49",WebKit,Edge,110.0.1587.49,Windows,10.0,,,,14,,,Price of this smartphone contract: £ 811,50,811,116,180,,,,,,,,,
,4257,rating_trial,html-slider-response,121,715060,0.0-121.0,11,1,2023-02-18 16:09:16,b4b36d01b824878cb522b304283fdf77,109.147.75.184,"Mozilla/5.0 (Windows NT 10.0; Win64; x64) AppleWebKit/537.36 (KHTML, like Gecko) Chrome/110.0.0.0 Safari/537.36 Edg/110.0.1587.49",WebKit,Edge,110.0.1587.49,Windows,10.0,,,,16,,,Price of this smartphone contract: £ 744,50,744,117,180,,,,,,,,,
,6791,rating_trial,html-slider-response,122,721857,0.0-122.0,11,1,2023-02-18 16:09:16,b4b36d01b824878cb522b304283fdf77,109.147.75.184,"Mozilla/5.0 (Windows NT 10.0; Win64; x64) AppleWebKit/537.36 (KHTML, like Gecko) Chrome/110.0.0.0 Safari/537.36 Edg/110.0.1587.49",WebKit,Edge,110.0.1587.49,Windows,10.0,,,,2,,,Price of this smartphone contract: £ 989.99,50,989.99,118,180,,,,,,,,,
,4801,rating_trial,html-slider-response,123,726664,0.0-123.0,11,1,2023-02-18 16:09:16,b4b36d01b824878cb522b304283fdf77,109.147.75.184,"Mozilla/5.0 (Windows NT 10.0; Win64; x64) AppleWebKit/537.36 (KHTML, like Gecko) Chrome/110.0.0.0 Safari/537.36 Edg/110.0.1587.49",WebKit,Edge,110.0.1587.49,Windows,10.0,,,,0,,,Price of this smartphone contract: £ 1032,50,1032,119,180,,,,,,,,,
,5128,rating_trial,html-slider-response,124,731799,0.0-124.0,11,1,2023-02-18 16:09:16,b4b36d01b824878cb522b304283fdf77,109.147.75.184,"Mozilla/5.0 (Windows NT 10.0; Win64; x64) AppleWebKit/537.36 (KHTML, like Gecko) Chrome/110.0.0.0 Safari/537.36 Edg/110.0.1587.49",WebKit,Edge,110.0.1587.49,Windows,10.0,,,,1,,,Price of this smartphone contract: £ 909.99,50,909.99,120,180,,,,,,,,,
,3924,rating_trial,html-slider-response,125,735728,0.0-125.0,11,1,2023-02-18 16:09:16,b4b36d01b824878cb522b304283fdf77,109.147.75.184,"Mozilla/5.0 (Windows NT 10.0; Win64; x64) AppleWebKit/537.36 (KHTML, like Gecko) Chrome/110.0.0.0 Safari/537.36 Edg/110.0.1587.49",WebKit,Edge,110.0.1587.49,Windows,10.0,,,,1,,,Price of this smartphone contract: £ 945.99,50,945.99,121,180,,,,,,,,,
,4979,rating_trial,html-slider-response,126,740712,0.0-126.0,11,1,2023-02-18 16:09:16,b4b36d01b824878cb522b304283fdf77,109.147.75.184,"Mozilla/5.0 (Windows NT 10.0; Win64; x64) AppleWebKit/537.36 (KHTML, like Gecko) Chrome/110.0.0.0 Safari/537.36 Edg/110.0.1587.49",WebKit,Edge,110.0.1587.49,Windows,10.0,,,,7,,,Price of this smartphone contract: £ 865.99,50,865.99,122,180,,,,,,,,,
,4007,rating_trial,html-slider-response,127,744725,0.0-127.0,11,1,2023-02-18 16:09:16,b4b36d01b824878cb522b304283fdf77,109.147.75.184,"Mozilla/5.0 (Windows NT 10.0; Win64; x64) AppleWebKit/537.36 (KHTML, like Gecko) Chrome/110.0.0.0 Safari/537.36 Edg/110.0.1587.49",WebKit,Edge,110.0.1587.49,Windows,10.0,,,,0,,,Price of this smartphone contract: £ 1123,50,1123,123,180,,,,,,,,,
,3509,rating_trial,html-slider-response,128,748240,0.0-128.0,11,1,2023-02-18 16:09:16,b4b36d01b824878cb522b304283fdf77,109.147.75.184,"Mozilla/5.0 (Windows NT 10.0; Win64; x64) AppleWebKit/537.36 (KHTML, like Gecko) Chrome/110.0.0.0 Safari/537.36 Edg/110.0.1587.49",WebKit,Edge,110.0.1587.49,Windows,10.0,,,,44,,,Price of this smartphone contract: £ 576,50,576,124,180,,,,,,,,,
,7020,rating_trial,html-slider-response,129,755266,0.0-129.0,11,1,2023-02-18 16:09:16,b4b36d01b824878cb522b304283fdf77,109.147.75.184,"Mozilla/5.0 (Windows NT 10.0; Win64; x64) AppleWebKit/537.36 (KHTML, like Gecko) Chrome/110.0.0.0 Safari/537.36 Edg/110.0.1587.49",WebKit,Edge,110.0.1587.49,Windows,10.0,,,,28,,,Price of this smartphone contract: £ 787,50,787,125,180,,,,,,,,,
,4027,rating_trial,html-slider-response,130,759300,0.0-130.0,11,1,2023-02-18 16:09:16,b4b36d01b824878cb522b304283fdf77,109.147.75.184,"Mozilla/5.0 (Windows NT 10.0; Win64; x64) AppleWebKit/537.36 (KHTML, like Gecko) Chrome/110.0.0.0 Safari/537.36 Edg/110.0.1587.49",WebKit,Edge,110.0.1587.49,Windows,10.0,,,,0,,,Price of this smartphone contract: £ 1250,50,1250,126,180,,,,,,,,,
,3638,rating_trial,html-slider-response,131,762945,0.0-131.0,11,1,2023-02-18 16:09:16,b4b36d01b824878cb522b304283fdf77,109.147.75.184,"Mozilla/5.0 (Windows NT 10.0; Win64; x64) AppleWebKit/537.36 (KHTML, like Gecko) Chrome/110.0.0.0 Safari/537.36 Edg/110.0.1587.49",WebKit,Edge,110.0.1587.49,Windows,10.0,,,,46,,,Price of this smartphone contract: £ 504,50,504,127,180,,,,,,,,,
,3273,rating_trial,html-slider-response,132,766225,0.0-132.0,11,1,2023-02-18 16:09:16,b4b36d01b824878cb522b304283fdf77,109.147.75.184,"Mozilla/5.0 (Windows NT 10.0; Win64; x64) AppleWebKit/537.36 (KHTML, like Gecko) Chrome/110.0.0.0 Safari/537.36 Edg/110.0.1587.49",WebKit,Edge,110.0.1587.49,Windows,10.0,,,,0,,,Price of this smartphone contract: £ 1320,50,1320,128,180,,,,,,,,,
,5196,rating_trial,html-slider-response,133,771427,0.0-133.0,11,1,2023-02-18 16:09:16,b4b36d01b824878cb522b304283fdf77,109.147.75.184,"Mozilla/5.0 (Windows NT 10.0; Win64; x64) AppleWebKit/537.36 (KHTML, like Gecko) Chrome/110.0.0.0 Safari/537.36 Edg/110.0.1587.49",WebKit,Edge,110.0.1587.49,Windows,10.0,,,,0,,,Price of this smartphone contract: £ 1115.99,50,1115.99,129,180,,,,,,,,,
,5984,rating_trial,html-slider-response,134,777418,0.0-134.0,11,1,2023-02-18 16:09:16,b4b36d01b824878cb522b304283fdf77,109.147.75.184,"Mozilla/5.0 (Windows NT 10.0; Win64; x64) AppleWebKit/537.36 (KHTML, like Gecko) Chrome/110.0.0.0 Safari/537.36 Edg/110.0.1587.49",WebKit,Edge,110.0.1587.49,Windows,10.0,,,,34,,,Price of this smartphone contract: £ 768,50,768,130,180,,,,,,,,,
,3823,rating_trial,html-slider-response,135,781248,0.0-135.0,11,1,2023-02-18 16:09:16,b4b36d01b824878cb522b304283fdf77,109.147.75.184,"Mozilla/5.0 (Windows NT 10.0; Win64; x64) AppleWebKit/537.36 (KHTML, like Gecko) Chrome/110.0.0.0 Safari/537.36 Edg/110.0.1587.49",WebKit,Edge,110.0.1587.49,Windows,10.0,,,,0,,,Price of this smartphone contract: £ 1123,50,1123,131,180,,,,,,,,,
,4531,rating_trial,html-slider-response,136,785787,0.0-136.0,11,1,2023-02-18 16:09:16,b4b36d01b824878cb522b304283fdf77,109.147.75.184,"Mozilla/5.0 (Windows NT 10.0; Win64; x64) AppleWebKit/537.36 (KHTML, like Gecko) Chrome/110.0.0.0 Safari/537.36 Edg/110.0.1587.49",WebKit,Edge,110.0.1587.49,Windows,10.0,,,,1,,,Price of this smartphone contract: £ 989.99,50,989.99,132,180,,,,,,,,,
,4071,rating_trial,html-slider-response,137,789864,0.0-137.0,11,1,2023-02-18 16:09:16,b4b36d01b824878cb522b304283fdf77,109.147.75.184,"Mozilla/5.0 (Windows NT 10.0; Win64; x64) AppleWebKit/537.36 (KHTML, like Gecko) Chrome/110.0.0.0 Safari/537.36 Edg/110.0.1587.49",WebKit,Edge,110.0.1587.49,Windows,10.0,,,,19,,,Price of this smartphone contract: £ 735.99,50,735.99,133,180,,,,,,,,,
,6032,rating_trial,html-slider-response,138,795904,0.0-138.0,11,1,2023-02-18 16:09:16,b4b36d01b824878cb522b304283fdf77,109.147.75.184,"Mozilla/5.0 (Windows NT 10.0; Win64; x64) AppleWebKit/537.36 (KHTML, like Gecko) Chrome/110.0.0.0 Safari/537.36 Edg/110.0.1587.49",WebKit,Edge,110.0.1587.49,Windows,10.0,,,,0,,,Price of this smartphone contract: £ 1008,50,1008,134,180,,,,,,,,,
,3792,rating_trial,html-slider-response,139,799703,0.0-139.0,11,1,2023-02-18 16:09:16,b4b36d01b824878cb522b304283fdf77,109.147.75.184,"Mozilla/5.0 (Windows NT 10.0; Win64; x64) AppleWebKit/537.36 (KHTML, like Gecko) Chrome/110.0.0.0 Safari/537.36 Edg/110.0.1587.49",WebKit,Edge,110.0.1587.49,Windows,10.0,,,,0,,,Price of this smartphone contract: £ 1225,50,1225,135,180,,,,,,,,,
,3745,rating_trial,html-slider-response,140,803455,0.0-140.0,11,1,2023-02-18 16:09:16,b4b36d01b824878cb522b304283fdf77,109.147.75.184,"Mozilla/5.0 (Windows NT 10.0; Win64; x64) AppleWebKit/537.36 (KHTML, like Gecko) Chrome/110.0.0.0 Safari/537.36 Edg/110.0.1587.49",WebKit,Edge,110.0.1587.49,Windows,10.0,,,,45,,,Price of this smartphone contract: £ 590.99,50,590.99,136,180,,,,,,,,,
,4861,rating_trial,html-slider-response,141,808323,0.0-141.0,11,1,2023-02-18 16:09:16,b4b36d01b824878cb522b304283fdf77,109.147.75.184,"Mozilla/5.0 (Windows NT 10.0; Win64; x64) AppleWebKit/537.36 (KHTML, like Gecko) Chrome/110.0.0.0 Safari/537.36 Edg/110.0.1587.49",WebKit,Edge,110.0.1587.49,Windows,10.0,,,,53,,,Price of this smartphone contract: £ 431.76,50,431.76,137,180,,,,,,,,,
,7885,rating_trial,html-slider-response,142,816215,0.0-142.0,11,1,2023-02-18 16:09:16,b4b36d01b824878cb522b304283fdf77,109.147.75.184,"Mozilla/5.0 (Windows NT 10.0; Win64; x64) AppleWebKit/537.36 (KHTML, like Gecko) Chrome/110.0.0.0 Safari/537.36 Edg/110.0.1587.49",WebKit,Edge,110.0.1587.49,Windows,10.0,,,,2,,,Price of this smartphone contract: £ 935,50,935,138,180,,,,,,,,,
,4212,rating_trial,html-slider-response,143,820433,0.0-143.0,11,1,2023-02-18 16:09:16,b4b36d01b824878cb522b304283fdf77,109.147.75.184,"Mozilla/5.0 (Windows NT 10.0; Win64; x64) AppleWebKit/537.36 (KHTML, like Gecko) Chrome/110.0.0.0 Safari/537.36 Edg/110.0.1587.49",WebKit,Edge,110.0.1587.49,Windows,10.0,,,,3,,,Price of this smartphone contract: £ 864,50,864,139,180,,,,,,,,,
,3307,rating_trial,html-slider-response,144,823746,0.0-144.0,11,1,2023-02-18 16:09:16,b4b36d01b824878cb522b304283fdf77,109.147.75.184,"Mozilla/5.0 (Windows NT 10.0; Win64; x64) AppleWebKit/537.36 (KHTML, like Gecko) Chrome/110.0.0.0 Safari/537.36 Edg/110.0.1587.49",WebKit,Edge,110.0.1587.49,Windows,10.0,,,,0,,,Price of this smartphone contract: £ 1253.99,50,1253.99,140,180,,,,,,,,,
,5883,rating_trial,html-slider-response,145,829636,0.0-145.0,11,1,2023-02-18 16:09:16,b4b36d01b824878cb522b304283fdf77,109.147.75.184,"Mozilla/5.0 (Windows NT 10.0; Win64; x64) AppleWebKit/537.36 (KHTML, like Gecko) Chrome/110.0.0.0 Safari/537.36 Edg/110.0.1587.49",WebKit,Edge,110.0.1587.49,Windows,10.0,,,,3,,,Price of this smartphone contract: £ 923.99,50,923.99,141,180,,,,,,,,,
,3995,rating_trial,html-slider-response,146,833637,0.0-146.0,11,1,2023-02-18 16:09:16,b4b36d01b824878cb522b304283fdf77,109.147.75.184,"Mozilla/5.0 (Windows NT 10.0; Win64; x64) AppleWebKit/537.36 (KHTML, like Gecko) Chrome/110.0.0.0 Safari/537.36 Edg/110.0.1587.49",WebKit,Edge,110.0.1587.49,Windows,10.0,,,,3,,,Price of this smartphone contract: £ 918.99,50,918.99,142,180,,,,,,,,,
,4009,rating_trial,html-slider-response,147,837655,0.0-147.0,11,1,2023-02-18 16:09:16,b4b36d01b824878cb522b304283fdf77,109.147.75.184,"Mozilla/5.0 (Windows NT 10.0; Win64; x64) AppleWebKit/537.36 (KHTML, like Gecko) Chrome/110.0.0.0 Safari/537.36 Edg/110.0.1587.49",WebKit,Edge,110.0.1587.49,Windows,10.0,,,,15,,,Price of this smartphone contract: £ 792,50,792,143,180,,,,,,,,,
,3608,rating_trial,html-slider-response,148,841271,0.0-148.0,11,1,2023-02-18 16:09:16,b4b36d01b824878cb522b304283fdf77,109.147.75.184,"Mozilla/5.0 (Windows NT 10.0; Win64; x64) AppleWebKit/537.36 (KHTML, like Gecko) Chrome/110.0.0.0 Safari/537.36 Edg/110.0.1587.49",WebKit,Edge,110.0.1587.49,Windows,10.0,,,,0,,,Price of this smartphone contract: £ 1113.99,50,1113.99,144,180,,,,,,,,,
,4269,rating_trial,html-slider-response,149,845543,0.0-149.0,11,1,2023-02-18 16:09:16,b4b36d01b824878cb522b304283fdf77,109.147.75.184,"Mozilla/5.0 (Windows NT 10.0; Win64; x64) AppleWebKit/537.36 (KHTML, like Gecko) Chrome/110.0.0.0 Safari/537.36 Edg/110.0.1587.49",WebKit,Edge,110.0.1587.49,Windows,10.0,,,,31,,,Price of this smartphone contract: £ 695.76,50,695.76,145,180,,,,,,,,,
,5219,rating_trial,html-slider-response,150,850769,0.0-150.0,11,1,2023-02-18 16:09:16,b4b36d01b824878cb522b304283fdf77,109.147.75.184,"Mozilla/5.0 (Windows NT 10.0; Win64; x64) AppleWebKit/537.36 (KHTML, like Gecko) Chrome/110.0.0.0 Safari/537.36 Edg/110.0.1587.49",WebKit,Edge,110.0.1587.49,Windows,10.0,,,,7,,,Price of this smartphone contract: £ 839.75,50,839.75,146,180,,,,,,,,,
,5045,rating_trial,html-slider-response,151,855821,0.0-151.0,11,1,2023-02-18 16:09:16,b4b36d01b824878cb522b304283fdf77,109.147.75.184,"Mozilla/5.0 (Windows NT 10.0; Win64; x64) AppleWebKit/537.36 (KHTML, like Gecko) Chrome/110.0.0.0 Safari/537.36 Edg/110.0.1587.49",WebKit,Edge,110.0.1587.49,Windows,10.0,,,,7,,,Price of this smartphone contract: £ 887.99,50,887.99,147,180,,,,,,,,,
,3876,rating_trial,html-slider-response,152,859704,0.0-152.0,11,1,2023-02-18 16:09:16,b4b36d01b824878cb522b304283fdf77,109.147.75.184,"Mozilla/5.0 (Windows NT 10.0; Win64; x64) AppleWebKit/537.36 (KHTML, like Gecko) Chrome/110.0.0.0 Safari/537.36 Edg/110.0.1587.49",WebKit,Edge,110.0.1587.49,Windows,10.0,,,,13,,,Price of this smartphone contract: £ 799.99,50,799.99,148,180,,,,,,,,,
,5244,rating_trial,html-slider-response,153,864957,0.0-153.0,11,1,2023-02-18 16:09:16,b4b36d01b824878cb522b304283fdf77,109.147.75.184,"Mozilla/5.0 (Windows NT 10.0; Win64; x64) AppleWebKit/537.36 (KHTML, like Gecko) Chrome/110.0.0.0 Safari/537.36 Edg/110.0.1587.49",WebKit,Edge,110.0.1587.49,Windows,10.0,,,,4,,,Price of this smartphone contract: £ 915,50,915,149,180,,,,,,,,,
,3923,rating_trial,html-slider-response,154,868887,0.0-154.0,11,1,2023-02-18 16:09:16,b4b36d01b824878cb522b304283fdf77,109.147.75.184,"Mozilla/5.0 (Windows NT 10.0; Win64; x64) AppleWebKit/537.36 (KHTML, like Gecko) Chrome/110.0.0.0 Safari/537.36 Edg/110.0.1587.49",WebKit,Edge,110.0.1587.49,Windows,10.0,,,,10,,,Price of this smartphone contract: £ 798.99,50,798.99,150,180,,,,,,,,,
,3806,rating_trial,html-slider-response,155,872700,0.0-155.0,11,1,2023-02-18 16:09:16,b4b36d01b824878cb522b304283fdf77,109.147.75.184,"Mozilla/5.0 (Windows NT 10.0; Win64; x64) AppleWebKit/537.36 (KHTML, like Gecko) Chrome/110.0.0.0 Safari/537.36 Edg/110.0.1587.49",WebKit,Edge,110.0.1587.49,Windows,10.0,,,,9,,,Price of this smartphone contract: £ 825.99,50,825.99,151,180,,,,,,,,,
,3208,rating_trial,html-slider-response,156,875916,0.0-156.0,11,1,2023-02-18 16:09:16,b4b36d01b824878cb522b304283fdf77,109.147.75.184,"Mozilla/5.0 (Windows NT 10.0; Win64; x64) AppleWebKit/537.36 (KHTML, like Gecko) Chrome/110.0.0.0 Safari/537.36 Edg/110.0.1587.49",WebKit,Edge,110.0.1587.49,Windows,10.0,,,,0,,,Price of this smartphone contract: £ 1229.99,50,1229.99,152,180,,,,,,,,,
,5068,rating_trial,html-slider-response,157,880992,0.0-157.0,11,1,2023-02-18 16:09:16,b4b36d01b824878cb522b304283fdf77,109.147.75.184,"Mozilla/5.0 (Windows NT 10.0; Win64; x64) AppleWebKit/537.36 (KHTML, like Gecko) Chrome/110.0.0.0 Safari/537.36 Edg/110.0.1587.49",WebKit,Edge,110.0.1587.49,Windows,10.0,,,,15,,,Price of this smartphone contract: £ 725.99,50,725.99,153,180,,,,,,,,,
,4308,rating_trial,html-slider-response,158,885307,0.0-158.0,11,1,2023-02-18 16:09:16,b4b36d01b824878cb522b304283fdf77,109.147.75.184,"Mozilla/5.0 (Windows NT 10.0; Win64; x64) AppleWebKit/537.36 (KHTML, like Gecko) Chrome/110.0.0.0 Safari/537.36 Edg/110.0.1587.49",WebKit,Edge,110.0.1587.49,Windows,10.0,,,,34,,,Price of this smartphone contract: £ 600,50,600,154,180,,,,,,,,,
,5473,rating_trial,html-slider-response,159,890787,0.0-159.0,11,1,2023-02-18 16:09:16,b4b36d01b824878cb522b304283fdf77,109.147.75.184,"Mozilla/5.0 (Windows NT 10.0; Win64; x64) AppleWebKit/537.36 (KHTML, like Gecko) Chrome/110.0.0.0 Safari/537.36 Edg/110.0.1587.49",WebKit,Edge,110.0.1587.49,Windows,10.0,,,,11,,,Price of this smartphone contract: £ 825.99,50,825.99,155,180,,,,,,,,,
,3576,rating_trial,html-slider-response,160,894371,0.0-160.0,11,1,2023-02-18 16:09:16,b4b36d01b824878cb522b304283fdf77,109.147.75.184,"Mozilla/5.0 (Windows NT 10.0; Win64; x64) AppleWebKit/537.36 (KHTML, like Gecko) Chrome/110.0.0.0 Safari/537.36 Edg/110.0.1587.49",WebKit,Edge,110.0.1587.49,Windows,10.0,,,,0,,,Price of this smartphone contract: £ 1345,50,1345,156,180,,,,,,,,,
,3689,rating_trial,html-slider-response,161,898068,0.0-161.0,11,1,2023-02-18 16:09:16,b4b36d01b824878cb522b304283fdf77,109.147.75.184,"Mozilla/5.0 (Windows NT 10.0; Win64; x64) AppleWebKit/537.36 (KHTML, like Gecko) Chrome/110.0.0.0 Safari/537.36 Edg/110.0.1587.49",WebKit,Edge,110.0.1587.49,Windows,10.0,,,,0,,,Price of this smartphone contract: £ 1763.99,50,1763.99,157,180,,,,,,,,,
,3974,rating_trial,html-slider-response,162,902049,0.0-162.0,11,1,2023-02-18 16:09:16,b4b36d01b824878cb522b304283fdf77,109.147.75.184,"Mozilla/5.0 (Windows NT 10.0; Win64; x64) AppleWebKit/537.36 (KHTML, like Gecko) Chrome/110.0.0.0 Safari/537.36 Edg/110.0.1587.49",WebKit,Edge,110.0.1587.49,Windows,10.0,,,,0,,,Price of this smartphone contract: £ 1113.99,50,1113.99,158,180,,,,,,,,,
,5536,rating_trial,html-slider-response,163,907593,0.0-163.0,11,1,2023-02-18 16:09:16,b4b36d01b824878cb522b304283fdf77,109.147.75.184,"Mozilla/5.0 (Windows NT 10.0; Win64; x64) AppleWebKit/537.36 (KHTML, like Gecko) Chrome/110.0.0.0 Safari/537.36 Edg/110.0.1587.49",WebKit,Edge,110.0.1587.49,Windows,10.0,,,,34,,,Price of this smartphone contract: £ 642.96,50,642.96,159,180,,,,,,,,,
,3984,rating_trial,html-slider-response,164,911586,0.0-164.0,11,1,2023-02-18 16:09:16,b4b36d01b824878cb522b304283fdf77,109.147.75.184,"Mozilla/5.0 (Windows NT 10.0; Win64; x64) AppleWebKit/537.36 (KHTML, like Gecko) Chrome/110.0.0.0 Safari/537.36 Edg/110.0.1587.49",WebKit,Edge,110.0.1587.49,Windows,10.0,,,,9,,,Price of this smartphone contract: £ 869.99,50,869.99,160,180,,,,,,,,,
,4176,rating_trial,html-slider-response,165,915769,0.0-165.0,11,1,2023-02-18 16:09:16,b4b36d01b824878cb522b304283fdf77,109.147.75.184,"Mozilla/5.0 (Windows NT 10.0; Win64; x64) AppleWebKit/537.36 (KHTML, like Gecko) Chrome/110.0.0.0 Safari/537.36 Edg/110.0.1587.49",WebKit,Edge,110.0.1587.49,Windows,10.0,,,,20,,,Price of this smartphone contract: £ 735.99,50,735.99,161,180,,,,,,,,,
,3861,rating_trial,html-slider-response,166,919637,0.0-166.0,11,1,2023-02-18 16:09:16,b4b36d01b824878cb522b304283fdf77,109.147.75.184,"Mozilla/5.0 (Windows NT 10.0; Win64; x64) AppleWebKit/537.36 (KHTML, like Gecko) Chrome/110.0.0.0 Safari/537.36 Edg/110.0.1587.49",WebKit,Edge,110.0.1587.49,Windows,10.0,,,,0,,,Price of this smartphone contract: £ 1152,50,1152,162,180,,,,,,,,,
,4439,rating_trial,html-slider-response,167,924084,0.0-167.0,11,1,2023-02-18 16:09:16,b4b36d01b824878cb522b304283fdf77,109.147.75.184,"Mozilla/5.0 (Windows NT 10.0; Win64; x64) AppleWebKit/537.36 (KHTML, like Gecko) Chrome/110.0.0.0 Safari/537.36 Edg/110.0.1587.49",WebKit,Edge,110.0.1587.49,Windows,10.0,,,,19,,,Price of this smartphone contract: £ 720,50,720,163,180,,,,,,,,,
,7110,rating_trial,html-slider-response,168,931201,0.0-168.0,11,1,2023-02-18 16:09:16,b4b36d01b824878cb522b304283fdf77,109.147.75.184,"Mozilla/5.0 (Windows NT 10.0; Win64; x64) AppleWebKit/537.36 (KHTML, like Gecko) Chrome/110.0.0.0 Safari/537.36 Edg/110.0.1587.49",WebKit,Edge,110.0.1587.49,Windows,10.0,,,,54,,,Price of this smartphone contract: £ 431.76,50,431.76,164,180,,,,,,,,,
,3522,rating_trial,html-slider-response,169,934730,0.0-169.0,11,1,2023-02-18 16:09:16,b4b36d01b824878cb522b304283fdf77,109.147.75.184,"Mozilla/5.0 (Windows NT 10.0; Win64; x64) AppleWebKit/537.36 (KHTML, like Gecko) Chrome/110.0.0.0 Safari/537.36 Edg/110.0.1587.49",WebKit,Edge,110.0.1587.49,Windows,10.0,,,,0,,,Price of this smartphone contract: £ 1061.99,50,1061.99,165,180,,,,,,,,,
,3524,rating_trial,html-slider-response,170,938262,0.0-170.0,11,1,2023-02-18 16:09:16,b4b36d01b824878cb522b304283fdf77,109.147.75.184,"Mozilla/5.0 (Windows NT 10.0; Win64; x64) AppleWebKit/537.36 (KHTML, like Gecko) Chrome/110.0.0.0 Safari/537.36 Edg/110.0.1587.49",WebKit,Edge,110.0.1587.49,Windows,10.0,,,,0,,,Price of this smartphone contract: £ 1187.99,50,1187.99,166,180,,,,,,,,,
,4410,rating_trial,html-slider-response,171,942680,0.0-171.0,11,1,2023-02-18 16:09:16,b4b36d01b824878cb522b304283fdf77,109.147.75.184,"Mozilla/5.0 (Windows NT 10.0; Win64; x64) AppleWebKit/537.36 (KHTML, like Gecko) Chrome/110.0.0.0 Safari/537.36 Edg/110.0.1587.49",WebKit,Edge,110.0.1587.49,Windows,10.0,,,,0,,,Price of this smartphone contract: £ 1345,50,1345,167,180,,,,,,,,,
,4160,rating_trial,html-slider-response,172,946848,0.0-172.0,11,1,2023-02-18 16:09:16,b4b36d01b824878cb522b304283fdf77,109.147.75.184,"Mozilla/5.0 (Windows NT 10.0; Win64; x64) AppleWebKit/537.36 (KHTML, like Gecko) Chrome/110.0.0.0 Safari/537.36 Edg/110.0.1587.49",WebKit,Edge,110.0.1587.49,Windows,10.0,,,,1,,,Price of this smartphone contract: £ 945.99,50,945.99,168,180,,,,,,,,,
,3709,rating_trial,html-slider-response,173,950565,0.0-173.0,11,1,2023-02-18 16:09:16,b4b36d01b824878cb522b304283fdf77,109.147.75.184,"Mozilla/5.0 (Windows NT 10.0; Win64; x64) AppleWebKit/537.36 (KHTML, like Gecko) Chrome/110.0.0.0 Safari/537.36 Edg/110.0.1587.49",WebKit,Edge,110.0.1587.49,Windows,10.0,,,,13,,,Price of this smartphone contract: £ 795.99,50,795.99,169,180,,,,,,,,,
,3668,rating_trial,html-slider-response,174,954241,0.0-174.0,11,1,2023-02-18 16:09:16,b4b36d01b824878cb522b304283fdf77,109.147.75.184,"Mozilla/5.0 (Windows NT 10.0; Win64; x64) AppleWebKit/537.36 (KHTML, like Gecko) Chrome/110.0.0.0 Safari/537.36 Edg/110.0.1587.49",WebKit,Edge,110.0.1587.49,Windows,10.0,,,,2,,,Price of this smartphone contract: £ 912,50,912,170,180,,,,,,,,,
,3745,rating_trial,html-slider-response,175,957994,0.0-175.0,11,1,2023-02-18 16:09:16,b4b36d01b824878cb522b304283fdf77,109.147.75.184,"Mozilla/5.0 (Windows NT 10.0; Win64; x64) AppleWebKit/537.36 (KHTML, like Gecko) Chrome/110.0.0.0 Safari/537.36 Edg/110.0.1587.49",WebKit,Edge,110.0.1587.49,Windows,10.0,,,,48,,,Price of this smartphone contract: £ 571,50,571,171,180,,,,,,,,,
,3586,rating_trial,html-slider-response,176,961589,0.0-176.0,11,1,2023-02-18 16:09:16,b4b36d01b824878cb522b304283fdf77,109.147.75.184,"Mozilla/5.0 (Windows NT 10.0; Win64; x64) AppleWebKit/537.36 (KHTML, like Gecko) Chrome/110.0.0.0 Safari/537.36 Edg/110.0.1587.49",WebKit,Edge,110.0.1587.49,Windows,10.0,,,,0,,,Price of this smartphone contract: £ 1139.99,50,1139.99,172,180,,,,,,,,,
,4262,rating_trial,html-slider-response,177,965855,0.0-177.0,11,1,2023-02-18 16:09:16,b4b36d01b824878cb522b304283fdf77,109.147.75.184,"Mozilla/5.0 (Windows NT 10.0; Win64; x64) AppleWebKit/537.36 (KHTML, like Gecko) Chrome/110.0.0.0 Safari/537.36 Edg/110.0.1587.49",WebKit,Edge,110.0.1587.49,Windows,10.0,,,,45,,,Price of this smartphone contract: £ 576,50,576,173,180,,,,,,,,,
,3406,rating_trial,html-slider-response,178,969269,0.0-178.0,11,1,2023-02-18 16:09:16,b4b36d01b824878cb522b304283fdf77,109.147.75.184,"Mozilla/5.0 (Windows NT 10.0; Win64; x64) AppleWebKit/537.36 (KHTML, like Gecko) Chrome/110.0.0.0 Safari/537.36 Edg/110.0.1587.49",WebKit,Edge,110.0.1587.49,Windows,10.0,,,,45,,,Price of this smartphone contract: £ 646.08,50,646.08,174,180,,,,,,,,,
,20710,rating_trial,html-slider-response,179,989989,0.0-179.0,11,1,2023-02-18 16:09:16,b4b36d01b824878cb522b304283fdf77,109.147.75.184,"Mozilla/5.0 (Windows NT 10.0; Win64; x64) AppleWebKit/537.36 (KHTML, like Gecko) Chrome/110.0.0.0 Safari/537.36 Edg/110.0.1587.49",WebKit,Edge,110.0.1587.49,Windows,10.0,,,,0,,,Price of this smartphone contract: £ 1152,50,1152,175,180,,,,,,,,,
,4299,rating_trial,html-slider-response,180,994296,0.0-180.0,11,1,2023-02-18 16:09:16,b4b36d01b824878cb522b304283fdf77,109.147.75.184,"Mozilla/5.0 (Windows NT 10.0; Win64; x64) AppleWebKit/537.36 (KHTML, like Gecko) Chrome/110.0.0.0 Safari/537.36 Edg/110.0.1587.49",WebKit,Edge,110.0.1587.49,Windows,10.0,,,,8,,,Price of this smartphone contract: £ 865.99,50,865.99,176,180,,,,,,,,,
,3474,rating_trial,html-slider-response,181,997779,0.0-181.0,11,1,2023-02-18 16:09:16,b4b36d01b824878cb522b304283fdf77,109.147.75.184,"Mozilla/5.0 (Windows NT 10.0; Win64; x64) AppleWebKit/537.36 (KHTML, like Gecko) Chrome/110.0.0.0 Safari/537.36 Edg/110.0.1587.49",WebKit,Edge,110.0.1587.49,Windows,10.0,,,,32,,,Price of this smartphone contract: £ 673.99,50,673.99,177,180,,,,,,,,,
,3335,rating_trial,html-slider-response,182,1001123,0.0-182.0,11,1,2023-02-18 16:09:16,b4b36d01b824878cb522b304283fdf77,109.147.75.184,"Mozilla/5.0 (Windows NT 10.0; Win64; x64) AppleWebKit/537.36 (KHTML, like Gecko) Chrome/110.0.0.0 Safari/537.36 Edg/110.0.1587.49",WebKit,Edge,110.0.1587.49,Windows,10.0,,,,0,,,Price of this smartphone contract: £ 1008,50,1008,178,180,,,,,,,,,
,4728,rating_trial,html-slider-response,183,1005859,0.0-183.0,11,1,2023-02-18 16:09:16,b4b36d01b824878cb522b304283fdf77,109.147.75.184,"Mozilla/5.0 (Windows NT 10.0; Win64; x64) AppleWebKit/537.36 (KHTML, like Gecko) Chrome/110.0.0.0 Safari/537.36 Edg/110.0.1587.49",WebKit,Edge,110.0.1587.49,Windows,10.0,,,,11,,,Price of this smartphone contract: £ 875.99,50,875.99,179,180,,,,,,,,,
"[{""page_index"":0,""viewing_time"":30343},{""page_index"":1,""viewing_time"":8496},{""page_index"":2,""viewing_time"":23820},{""page_index"":3,""viewing_time"":12578},{""page_index"":4,""viewing_time"":3805},{""page_index"":5,""viewing_time"":5729}]",84771,phase2_instructions,instructions,184,1090640,0.0-184.0,11,1,2023-02-18 16:09:16,b4b36d01b824878cb522b304283fdf77,109.147.75.184,"Mozilla/5.0 (Windows NT 10.0; Win64; x64) AppleWebKit/537.36 (KHTML, like Gecko) Chrome/110.0.0.0 Safari/537.36 Edg/110.0.1587.49",WebKit,Edge,110.0.1587.49,Windows,10.0,,,,,,,,,,,,,,,,,,,,
,null,sequence_start_screen,html-keyboard-response,185,1097322,0.0-185.0,11,1,2023-02-18 16:09:16,b4b36d01b824878cb522b304283fdf77,109.147.75.184,"Mozilla/5.0 (Windows NT 10.0; Win64; x64) AppleWebKit/537.36 (KHTML, like Gecko) Chrome/110.0.0.0 Safari/537.36 Edg/110.0.1587.49",WebKit,Edge,110.0.1587.49,Windows,10.0,,,,null,,,"
                <h3 style=""color: white; text-align: left;"">You will buy a: <strong>SMARTPHONE</strong></h3> <br/> 
                <h3 style=""color: white; text-align: left;"">You can see up to: <strong>12 options</strong></h3> <br/> 
                <h3 style=""color: white; text-align: left;"">It is best to buy a SMARTPHONE</h3> <br/> 
                <h3 style=""color: white; text-align: left"">at the LOWEST PRICE </h3>
                    ",,,,,,,,,,,,,
,null,option_screen,html-keyboard-response,186,1102318,0.0-186.0-0.0,11,1,2023-02-18 16:09:16,b4b36d01b824878cb522b304283fdf77,109.147.75.184,"Mozilla/5.0 (Windows NT 10.0; Win64; x64) AppleWebKit/537.36 (KHTML, like Gecko) Chrome/110.0.0.0 Safari/537.36 Edg/110.0.1587.49",WebKit,Edge,110.0.1587.49,Windows,10.0,,,,null,,,"
                <h3 style=""color: white;"">You will buy a: SMARTPHONE</h3> <br/> 
                <h3 style=""color: white;"">You have only 11 options left to choose from</h3> <br/> 
                <h3 style=""color: white;"">Current Option:</h3><br/> 
                <h3 style="" color: black;""> £504</h3><br/> 
                <h3 style="" color: black;"">Declined Options</span></h3><br/> 
                <h3 style=""left: 0; color: black;""></h3>
                ",,504,,,1,1,,,,,,,
,3139,response_prompt,html-button-response,187,1105466,0.0-186.0-1.0,11,1,2023-02-18 16:09:16,b4b36d01b824878cb522b304283fdf77,109.147.75.184,"Mozilla/5.0 (Windows NT 10.0; Win64; x64) AppleWebKit/537.36 (KHTML, like Gecko) Chrome/110.0.0.0 Safari/537.36 Edg/110.0.1587.49",WebKit,Edge,110.0.1587.49,Windows,10.0,,,,1,,,"
                    <p><div style=""color:white;"">Do you want to take this option?</div></p>
                        ",,504,,,1,1,2,12,5,0,2,"[[504,1345,749.99,801.99,631.92,887.99,915,431.76,646.08,825.99,590.99,1115.99],[799.99,723,871.99,1225,1155.99,735.99,811,945.99,383.76,864,1691.99,1253.99],[528,642.96,1322,1083,1061.99,576,835,1008,1709,673.99,935,1187.99],[1113.99,912,746.99,432,745.99,918.99,725.99,845.99,1250,865.99,798.99,875.99],[667,1763.99,1133.99,571,695.76,795,941.99,359.76,1320,720,480,869.99]]",
,null,option_screen,html-keyboard-response,188,1109488,0.0-187.0-0.0,11,1,2023-02-18 16:09:16,b4b36d01b824878cb522b304283fdf77,109.147.75.184,"Mozilla/5.0 (Windows NT 10.0; Win64; x64) AppleWebKit/537.36 (KHTML, like Gecko) Chrome/110.0.0.0 Safari/537.36 Edg/110.0.1587.49",WebKit,Edge,110.0.1587.49,Windows,10.0,,,,null,,,"
                <h3 style=""color: white;"">You will buy a: SMARTPHONE</h3> <br/> 
                <h3 style=""color: white;"">You have only 10 options left to choose from</h3> <br/> 
                <h3 style=""color: white;"">Current Option:</h3><br/> 
                <h3 style="" color: black;""> £1345</h3><br/> 
                <h3 style="" color: black;"">Declined Options</span></h3><br/> 
                <h3 style=""left: 0; color: black;"">£504</h3>
                ",,1345,,,1,2,,,,,,,
,1053,response_prompt,html-button-response,189,1110550,0.0-187.0-1.0,11,1,2023-02-18 16:09:16,b4b36d01b824878cb522b304283fdf77,109.147.75.184,"Mozilla/5.0 (Windows NT 10.0; Win64; x64) AppleWebKit/537.36 (KHTML, like Gecko) Chrome/110.0.0.0 Safari/537.36 Edg/110.0.1587.49",WebKit,Edge,110.0.1587.49,Windows,10.0,,,,1,,,"
                    <p><div style=""color:white;"">Do you want to take this option?</div></p>
                        ",,1345,,,1,2,12,12,5,0,2,"[[504,1345,749.99,801.99,631.92,887.99,915,431.76,646.08,825.99,590.99,1115.99],[799.99,723,871.99,1225,1155.99,735.99,811,945.99,383.76,864,1691.99,1253.99],[528,642.96,1322,1083,1061.99,576,835,1008,1709,673.99,935,1187.99],[1113.99,912,746.99,432,745.99,918.99,725.99,845.99,1250,865.99,798.99,875.99],[667,1763.99,1133.99,571,695.76,795,941.99,359.76,1320,720,480,869.99]]",
,null,option_screen,html-keyboard-response,190,1114568,0.0-188.0-0.0,11,1,2023-02-18 16:09:16,b4b36d01b824878cb522b304283fdf77,109.147.75.184,"Mozilla/5.0 (Windows NT 10.0; Win64; x64) AppleWebKit/537.36 (KHTML, like Gecko) Chrome/110.0.0.0 Safari/537.36 Edg/110.0.1587.49",WebKit,Edge,110.0.1587.49,Windows,10.0,,,,null,,,"
                <h3 style=""color: white;"">You will buy a: SMARTPHONE</h3> <br/> 
                <h3 style=""color: white;"">You have only 9 options left to choose from</h3> <br/> 
                <h3 style=""color: white;"">Current Option:</h3><br/> 
                <h3 style="" color: black;""> £749.99</h3><br/> 
                <h3 style="" color: black;"">Declined Options</span></h3><br/> 
                <h3 style=""left: 0; color: black;"">£504..   £1345</h3>
                ",,749.99,,,1,3,,,,,,,
,974,response_prompt,html-button-response,191,1115552,0.0-188.0-1.0,11,1,2023-02-18 16:09:16,b4b36d01b824878cb522b304283fdf77,109.147.75.184,"Mozilla/5.0 (Windows NT 10.0; Win64; x64) AppleWebKit/537.36 (KHTML, like Gecko) Chrome/110.0.0.0 Safari/537.36 Edg/110.0.1587.49",WebKit,Edge,110.0.1587.49,Windows,10.0,,,,1,,,"
                    <p><div style=""color:white;"">Do you want to take this option?</div></p>
                        ",,749.99,,,1,3,6,12,5,0,2,"[[504,1345,749.99,801.99,631.92,887.99,915,431.76,646.08,825.99,590.99,1115.99],[799.99,723,871.99,1225,1155.99,735.99,811,945.99,383.76,864,1691.99,1253.99],[528,642.96,1322,1083,1061.99,576,835,1008,1709,673.99,935,1187.99],[1113.99,912,746.99,432,745.99,918.99,725.99,845.99,1250,865.99,798.99,875.99],[667,1763.99,1133.99,571,695.76,795,941.99,359.76,1320,720,480,869.99]]",
,null,option_screen,html-keyboard-response,192,1119570,0.0-189.0-0.0,11,1,2023-02-18 16:09:16,b4b36d01b824878cb522b304283fdf77,109.147.75.184,"Mozilla/5.0 (Windows NT 10.0; Win64; x64) AppleWebKit/537.36 (KHTML, like Gecko) Chrome/110.0.0.0 Safari/537.36 Edg/110.0.1587.49",WebKit,Edge,110.0.1587.49,Windows,10.0,,,,null,,,"
                <h3 style=""color: white;"">You will buy a: SMARTPHONE</h3> <br/> 
                <h3 style=""color: white;"">You have only 8 options left to choose from</h3> <br/> 
                <h3 style=""color: white;"">Current Option:</h3><br/> 
                <h3 style="" color: black;""> £801.99</h3><br/> 
                <h3 style="" color: black;"">Declined Options</span></h3><br/> 
                <h3 style=""left: 0; color: black;"">£504..   £1345..   £749.99</h3>
                ",,801.99,,,1,4,,,,,,,
,836,response_prompt,html-button-response,193,1120416,0.0-189.0-1.0,11,1,2023-02-18 16:09:16,b4b36d01b824878cb522b304283fdf77,109.147.75.184,"Mozilla/5.0 (Windows NT 10.0; Win64; x64) AppleWebKit/537.36 (KHTML, like Gecko) Chrome/110.0.0.0 Safari/537.36 Edg/110.0.1587.49",WebKit,Edge,110.0.1587.49,Windows,10.0,,,,1,,,"
                    <p><div style=""color:white;"">Do you want to take this option?</div></p>
                        ",,801.99,,,1,4,7,12,5,0,2,"[[504,1345,749.99,801.99,631.92,887.99,915,431.76,646.08,825.99,590.99,1115.99],[799.99,723,871.99,1225,1155.99,735.99,811,945.99,383.76,864,1691.99,1253.99],[528,642.96,1322,1083,1061.99,576,835,1008,1709,673.99,935,1187.99],[1113.99,912,746.99,432,745.99,918.99,725.99,845.99,1250,865.99,798.99,875.99],[667,1763.99,1133.99,571,695.76,795,941.99,359.76,1320,720,480,869.99]]",
,null,option_screen,html-keyboard-response,194,1125325,0.0-190.0-0.0,11,1,2023-02-18 16:09:16,b4b36d01b824878cb522b304283fdf77,109.147.75.184,"Mozilla/5.0 (Windows NT 10.0; Win64; x64) AppleWebKit/537.36 (KHTML, like Gecko) Chrome/110.0.0.0 Safari/537.36 Edg/110.0.1587.49",WebKit,Edge,110.0.1587.49,Windows,10.0,,,,null,,,"
                <h3 style=""color: white;"">You will buy a: SMARTPHONE</h3> <br/> 
                <h3 style=""color: white;"">You have only 7 options left to choose from</h3> <br/> 
                <h3 style=""color: white;"">Current Option:</h3><br/> 
                <h3 style="" color: black;""> £631.92</h3><br/> 
                <h3 style="" color: black;"">Declined Options</span></h3><br/> 
                <h3 style=""left: 0; color: black;"">£504..   £1345..   £749.99..   £801.99</h3>
                ",,631.92,,,1,5,,,,,,,
,913,response_prompt,html-button-response,195,1126247,0.0-190.0-1.0,11,1,2023-02-18 16:09:16,b4b36d01b824878cb522b304283fdf77,109.147.75.184,"Mozilla/5.0 (Windows NT 10.0; Win64; x64) AppleWebKit/537.36 (KHTML, like Gecko) Chrome/110.0.0.0 Safari/537.36 Edg/110.0.1587.49",WebKit,Edge,110.0.1587.49,Windows,10.0,,,,1,,,"
                    <p><div style=""color:white;"">Do you want to take this option?</div></p>
                        ",,631.92,,,1,5,4,12,5,0,2,"[[504,1345,749.99,801.99,631.92,887.99,915,431.76,646.08,825.99,590.99,1115.99],[799.99,723,871.99,1225,1155.99,735.99,811,945.99,383.76,864,1691.99,1253.99],[528,642.96,1322,1083,1061.99,576,835,1008,1709,673.99,935,1187.99],[1113.99,912,746.99,432,745.99,918.99,725.99,845.99,1250,865.99,798.99,875.99],[667,1763.99,1133.99,571,695.76,795,941.99,359.76,1320,720,480,869.99]]",
,null,option_screen,html-keyboard-response,196,1130269,0.0-191.0-0.0,11,1,2023-02-18 16:09:16,b4b36d01b824878cb522b304283fdf77,109.147.75.184,"Mozilla/5.0 (Windows NT 10.0; Win64; x64) AppleWebKit/537.36 (KHTML, like Gecko) Chrome/110.0.0.0 Safari/537.36 Edg/110.0.1587.49",WebKit,Edge,110.0.1587.49,Windows,10.0,,,,null,,,"
                <h3 style=""color: white;"">You will buy a: SMARTPHONE</h3> <br/> 
                <h3 style=""color: white;"">You have only 6 options left to choose from</h3> <br/> 
                <h3 style=""color: white;"">Current Option:</h3><br/> 
                <h3 style="" color: black;""> £887.99</h3><br/> 
                <h3 style="" color: black;"">Declined Options</span></h3><br/> 
                <h3 style=""left: 0; color: black;"">£504..   £1345..   £749.99..   £801.99..   £631.92</h3>
                ",,887.99,,,1,6,,,,,,,
,911,response_prompt,html-button-response,197,1131190,0.0-191.0-1.0,11,1,2023-02-18 16:09:16,b4b36d01b824878cb522b304283fdf77,109.147.75.184,"Mozilla/5.0 (Windows NT 10.0; Win64; x64) AppleWebKit/537.36 (KHTML, like Gecko) Chrome/110.0.0.0 Safari/537.36 Edg/110.0.1587.49",WebKit,Edge,110.0.1587.49,Windows,10.0,,,,1,,,"
                    <p><div style=""color:white;"">Do you want to take this option?</div></p>
                        ",,887.99,,,1,6,9,12,5,0,2,"[[504,1345,749.99,801.99,631.92,887.99,915,431.76,646.08,825.99,590.99,1115.99],[799.99,723,871.99,1225,1155.99,735.99,811,945.99,383.76,864,1691.99,1253.99],[528,642.96,1322,1083,1061.99,576,835,1008,1709,673.99,935,1187.99],[1113.99,912,746.99,432,745.99,918.99,725.99,845.99,1250,865.99,798.99,875.99],[667,1763.99,1133.99,571,695.76,795,941.99,359.76,1320,720,480,869.99]]",
,null,option_screen,html-keyboard-response,198,1135311,0.0-192.0-0.0,11,1,2023-02-18 16:09:16,b4b36d01b824878cb522b304283fdf77,109.147.75.184,"Mozilla/5.0 (Windows NT 10.0; Win64; x64) AppleWebKit/537.36 (KHTML, like Gecko) Chrome/110.0.0.0 Safari/537.36 Edg/110.0.1587.49",WebKit,Edge,110.0.1587.49,Windows,10.0,,,,null,,,"
                <h3 style=""color: white;"">You will buy a: SMARTPHONE</h3> <br/> 
                <h3 style=""color: white;"">You have only 5 options left to choose from</h3> <br/> 
                <h3 style=""color: white;"">Current Option:</h3><br/> 
                <h3 style="" color: black;""> £915</h3><br/> 
                <h3 style="" color: black;"">Declined Options</span></h3><br/> 
                <h3 style=""left: 0; color: black;"">£504..   £1345..   £749.99..   £801.99..   £631.92..   £887.99</h3>
                ",,915,,,1,7,,,,,,,
,908,response_prompt,html-button-response,199,1136233,0.0-192.0-1.0,11,1,2023-02-18 16:09:16,b4b36d01b824878cb522b304283fdf77,109.147.75.184,"Mozilla/5.0 (Windows NT 10.0; Win64; x64) AppleWebKit/537.36 (KHTML, like Gecko) Chrome/110.0.0.0 Safari/537.36 Edg/110.0.1587.49",WebKit,Edge,110.0.1587.49,Windows,10.0,,,,1,,,"
                    <p><div style=""color:white;"">Do you want to take this option?</div></p>
                        ",,915,,,1,7,10,12,5,0,2,"[[504,1345,749.99,801.99,631.92,887.99,915,431.76,646.08,825.99,590.99,1115.99],[799.99,723,871.99,1225,1155.99,735.99,811,945.99,383.76,864,1691.99,1253.99],[528,642.96,1322,1083,1061.99,576,835,1008,1709,673.99,935,1187.99],[1113.99,912,746.99,432,745.99,918.99,725.99,845.99,1250,865.99,798.99,875.99],[667,1763.99,1133.99,571,695.76,795,941.99,359.76,1320,720,480,869.99]]",
,null,option_screen,html-keyboard-response,200,1140251,0.0-193.0-0.0,11,1,2023-02-18 16:09:16,b4b36d01b824878cb522b304283fdf77,109.147.75.184,"Mozilla/5.0 (Windows NT 10.0; Win64; x64) AppleWebKit/537.36 (KHTML, like Gecko) Chrome/110.0.0.0 Safari/537.36 Edg/110.0.1587.49",WebKit,Edge,110.0.1587.49,Windows,10.0,,,,null,,,"
                <h3 style=""color: white;"">You will buy a: SMARTPHONE</h3> <br/> 
                <h3 style=""color: white;"">You have only 4 options left to choose from</h3> <br/> 
                <h3 style=""color: white;"">Current Option:</h3><br/> 
                <h3 style="" color: black;""> £431.76</h3><br/> 
                <h3 style="" color: black;"">Declined Options</span></h3><br/> 
                <h3 style=""left: 0; color: black;"">£504..   £1345..   £749.99..   £801.99..   £631.92..   £887.99..   £915</h3>
                ",,431.76,,,1,8,,,,,,,
,1181,response_prompt,html-button-response,201,1141443,0.0-193.0-1.0,11,1,2023-02-18 16:09:16,b4b36d01b824878cb522b304283fdf77,109.147.75.184,"Mozilla/5.0 (Windows NT 10.0; Win64; x64) AppleWebKit/537.36 (KHTML, like Gecko) Chrome/110.0.0.0 Safari/537.36 Edg/110.0.1587.49",WebKit,Edge,110.0.1587.49,Windows,10.0,,,,0,,,"
                    <p><div style=""color:white;"">Do you want to take this option?</div></p>
                        ",,431.76,,,1,8,1,12,5,0,2,"[[504,1345,749.99,801.99,631.92,887.99,915,431.76,646.08,825.99,590.99,1115.99],[799.99,723,871.99,1225,1155.99,735.99,811,945.99,383.76,864,1691.99,1253.99],[528,642.96,1322,1083,1061.99,576,835,1008,1709,673.99,935,1187.99],[1113.99,912,746.99,432,745.99,918.99,725.99,845.99,1250,865.99,798.99,875.99],[667,1763.99,1133.99,571,695.76,795,941.99,359.76,1320,720,480,869.99]]",
,10426,feedback_screen,html-slider-response,202,1151880,0.0-198.0,11,1,2023-02-18 16:09:16,b4b36d01b824878cb522b304283fdf77,109.147.75.184,"Mozilla/5.0 (Windows NT 10.0; Win64; x64) AppleWebKit/537.36 (KHTML, like Gecko) Chrome/110.0.0.0 Safari/537.36 Edg/110.0.1587.49",WebKit,Edge,110.0.1587.49,Windows,10.0,,,,64,,,"<h3 style=""color:white; text-align: center;"">THIS IS THE PRICE OF YOUR CONTRACT!</h3>
                    <h3 style=""color:white; text-align: center;"">How rewarding is your choice? Please use the response slider.</h3>
                    <h3 style=""color:white; text-align: center;""> £431.76</h3>",50,431.76,,,,,1,,,,,,8
,null,sequence_start_screen,html-keyboard-response,203,1158312,0.0-199.0,11,1,2023-02-18 16:09:16,b4b36d01b824878cb522b304283fdf77,109.147.75.184,"Mozilla/5.0 (Windows NT 10.0; Win64; x64) AppleWebKit/537.36 (KHTML, like Gecko) Chrome/110.0.0.0 Safari/537.36 Edg/110.0.1587.49",WebKit,Edge,110.0.1587.49,Windows,10.0,,,,null,,,"
                <h3 style=""color: white; text-align: left;"">You will buy a: <strong>SMARTPHONE</strong></h3> <br/> 
                <h3 style=""color: white; text-align: left;"">You can see up to: <strong>12 options</strong></h3> <br/> 
                <h3 style=""color: white; text-align: left;"">It is best to buy a SMARTPHONE</h3> <br/> 
                <h3 style=""color: white; text-align: left"">at the LOWEST PRICE </h3>
                    ",,,,,,,,,,,,,
,null,option_screen,html-keyboard-response,204,1163326,0.0-200.0-0.0,11,1,2023-02-18 16:09:16,b4b36d01b824878cb522b304283fdf77,109.147.75.184,"Mozilla/5.0 (Windows NT 10.0; Win64; x64) AppleWebKit/537.36 (KHTML, like Gecko) Chrome/110.0.0.0 Safari/537.36 Edg/110.0.1587.49",WebKit,Edge,110.0.1587.49,Windows,10.0,,,,null,,,"
                <h3 style=""color: white;"">You will buy a: SMARTPHONE</h3> <br/> 
                <h3 style=""color: white;"">You have only 11 options left to choose from</h3> <br/> 
                <h3 style=""color: white;"">Current Option:</h3><br/> 
                <h3 style="" color: black;""> £799.99</h3><br/> 
                <h3 style="" color: black;"">Declined Options</span></h3><br/> 
                <h3 style=""left: 0; color: black;""></h3>
                ",,799.99,,,2,1,,,,,,,
,1775,response_prompt,html-button-response,205,1165112,0.0-200.0-1.0,11,1,2023-02-18 16:09:16,b4b36d01b824878cb522b304283fdf77,109.147.75.184,"Mozilla/5.0 (Windows NT 10.0; Win64; x64) AppleWebKit/537.36 (KHTML, like Gecko) Chrome/110.0.0.0 Safari/537.36 Edg/110.0.1587.49",WebKit,Edge,110.0.1587.49,Windows,10.0,,,,1,,,"
                    <p><div style=""color:white;"">Do you want to take this option?</div></p>
                        ",,799.99,,,2,1,4,12,5,0,2,"[[504,1345,749.99,801.99,631.92,887.99,915,431.76,646.08,825.99,590.99,1115.99],[799.99,723,871.99,1225,1155.99,735.99,811,945.99,383.76,864,1691.99,1253.99],[528,642.96,1322,1083,1061.99,576,835,1008,1709,673.99,935,1187.99],[1113.99,912,746.99,432,745.99,918.99,725.99,845.99,1250,865.99,798.99,875.99],[667,1763.99,1133.99,571,695.76,795,941.99,359.76,1320,720,480,869.99]]",
,null,option_screen,html-keyboard-response,206,1169130,0.0-201.0-0.0,11,1,2023-02-18 16:09:16,b4b36d01b824878cb522b304283fdf77,109.147.75.184,"Mozilla/5.0 (Windows NT 10.0; Win64; x64) AppleWebKit/537.36 (KHTML, like Gecko) Chrome/110.0.0.0 Safari/537.36 Edg/110.0.1587.49",WebKit,Edge,110.0.1587.49,Windows,10.0,,,,null,,,"
                <h3 style=""color: white;"">You will buy a: SMARTPHONE</h3> <br/> 
                <h3 style=""color: white;"">You have only 10 options left to choose from</h3> <br/> 
                <h3 style=""color: white;"">Current Option:</h3><br/> 
                <h3 style="" color: black;""> £723</h3><br/> 
                <h3 style="" color: black;"">Declined Options</span></h3><br/> 
                <h3 style=""left: 0; color: black;"">£799.99</h3>
                ",,723,,,2,2,,,,,,,
,780,response_prompt,html-button-response,207,1169921,0.0-201.0-1.0,11,1,2023-02-18 16:09:16,b4b36d01b824878cb522b304283fdf77,109.147.75.184,"Mozilla/5.0 (Windows NT 10.0; Win64; x64) AppleWebKit/537.36 (KHTML, like Gecko) Chrome/110.0.0.0 Safari/537.36 Edg/110.0.1587.49",WebKit,Edge,110.0.1587.49,Windows,10.0,,,,1,,,"
                    <p><div style=""color:white;"">Do you want to take this option?</div></p>
                        ",,723,,,2,2,2,12,5,0,2,"[[504,1345,749.99,801.99,631.92,887.99,915,431.76,646.08,825.99,590.99,1115.99],[799.99,723,871.99,1225,1155.99,735.99,811,945.99,383.76,864,1691.99,1253.99],[528,642.96,1322,1083,1061.99,576,835,1008,1709,673.99,935,1187.99],[1113.99,912,746.99,432,745.99,918.99,725.99,845.99,1250,865.99,798.99,875.99],[667,1763.99,1133.99,571,695.76,795,941.99,359.76,1320,720,480,869.99]]",
,null,option_screen,html-keyboard-response,208,1174331,0.0-202.0-0.0,11,1,2023-02-18 16:09:16,b4b36d01b824878cb522b304283fdf77,109.147.75.184,"Mozilla/5.0 (Windows NT 10.0; Win64; x64) AppleWebKit/537.36 (KHTML, like Gecko) Chrome/110.0.0.0 Safari/537.36 Edg/110.0.1587.49",WebKit,Edge,110.0.1587.49,Windows,10.0,,,,null,,,"
                <h3 style=""color: white;"">You will buy a: SMARTPHONE</h3> <br/> 
                <h3 style=""color: white;"">You have only 9 options left to choose from</h3> <br/> 
                <h3 style=""color: white;"">Current Option:</h3><br/> 
                <h3 style="" color: black;""> £871.99</h3><br/> 
                <h3 style="" color: black;"">Declined Options</span></h3><br/> 
                <h3 style=""left: 0; color: black;"">£799.99..   £723</h3>
                ",,871.99,,,2,3,,,,,,,
,910,response_prompt,html-button-response,209,1175251,0.0-202.0-1.0,11,1,2023-02-18 16:09:16,b4b36d01b824878cb522b304283fdf77,109.147.75.184,"Mozilla/5.0 (Windows NT 10.0; Win64; x64) AppleWebKit/537.36 (KHTML, like Gecko) Chrome/110.0.0.0 Safari/537.36 Edg/110.0.1587.49",WebKit,Edge,110.0.1587.49,Windows,10.0,,,,1,,,"
                    <p><div style=""color:white;"">Do you want to take this option?</div></p>
                        ",,871.99,,,2,3,7,12,5,0,2,"[[504,1345,749.99,801.99,631.92,887.99,915,431.76,646.08,825.99,590.99,1115.99],[799.99,723,871.99,1225,1155.99,735.99,811,945.99,383.76,864,1691.99,1253.99],[528,642.96,1322,1083,1061.99,576,835,1008,1709,673.99,935,1187.99],[1113.99,912,746.99,432,745.99,918.99,725.99,845.99,1250,865.99,798.99,875.99],[667,1763.99,1133.99,571,695.76,795,941.99,359.76,1320,720,480,869.99]]",
,null,option_screen,html-keyboard-response,210,1179273,0.0-203.0-0.0,11,1,2023-02-18 16:09:16,b4b36d01b824878cb522b304283fdf77,109.147.75.184,"Mozilla/5.0 (Windows NT 10.0; Win64; x64) AppleWebKit/537.36 (KHTML, like Gecko) Chrome/110.0.0.0 Safari/537.36 Edg/110.0.1587.49",WebKit,Edge,110.0.1587.49,Windows,10.0,,,,null,,,"
                <h3 style=""color: white;"">You will buy a: SMARTPHONE</h3> <br/> 
                <h3 style=""color: white;"">You have only 8 options left to choose from</h3> <br/> 
                <h3 style=""color: white;"">Current Option:</h3><br/> 
                <h3 style="" color: black;""> £1225</h3><br/> 
                <h3 style="" color: black;"">Declined Options</span></h3><br/> 
                <h3 style=""left: 0; color: black;"">£799.99..   £723..   £871.99</h3>
                ",,1225,,,2,4,,,,,,,
,762,response_prompt,html-button-response,211,1180047,0.0-203.0-1.0,11,1,2023-02-18 16:09:16,b4b36d01b824878cb522b304283fdf77,109.147.75.184,"Mozilla/5.0 (Windows NT 10.0; Win64; x64) AppleWebKit/537.36 (KHTML, like Gecko) Chrome/110.0.0.0 Safari/537.36 Edg/110.0.1587.49",WebKit,Edge,110.0.1587.49,Windows,10.0,,,,1,,,"
                    <p><div style=""color:white;"">Do you want to take this option?</div></p>
                        ",,1225,,,2,4,10,12,5,0,2,"[[504,1345,749.99,801.99,631.92,887.99,915,431.76,646.08,825.99,590.99,1115.99],[799.99,723,871.99,1225,1155.99,735.99,811,945.99,383.76,864,1691.99,1253.99],[528,642.96,1322,1083,1061.99,576,835,1008,1709,673.99,935,1187.99],[1113.99,912,746.99,432,745.99,918.99,725.99,845.99,1250,865.99,798.99,875.99],[667,1763.99,1133.99,571,695.76,795,941.99,359.76,1320,720,480,869.99]]",
,null,option_screen,html-keyboard-response,212,1184313,0.0-204.0-0.0,11,1,2023-02-18 16:09:16,b4b36d01b824878cb522b304283fdf77,109.147.75.184,"Mozilla/5.0 (Windows NT 10.0; Win64; x64) AppleWebKit/537.36 (KHTML, like Gecko) Chrome/110.0.0.0 Safari/537.36 Edg/110.0.1587.49",WebKit,Edge,110.0.1587.49,Windows,10.0,,,,null,,,"
                <h3 style=""color: white;"">You will buy a: SMARTPHONE</h3> <br/> 
                <h3 style=""color: white;"">You have only 7 options left to choose from</h3> <br/> 
                <h3 style=""color: white;"">Current Option:</h3><br/> 
                <h3 style="" color: black;""> £1155.99</h3><br/> 
                <h3 style="" color: black;"">Declined Options</span></h3><br/> 
                <h3 style=""left: 0; color: black;"">£799.99..   £723..   £871.99..   £1225</h3>
                ",,1155.99,,,2,5,,,,,,,
,819,response_prompt,html-button-response,213,1185143,0.0-204.0-1.0,11,1,2023-02-18 16:09:16,b4b36d01b824878cb522b304283fdf77,109.147.75.184,"Mozilla/5.0 (Windows NT 10.0; Win64; x64) AppleWebKit/537.36 (KHTML, like Gecko) Chrome/110.0.0.0 Safari/537.36 Edg/110.0.1587.49",WebKit,Edge,110.0.1587.49,Windows,10.0,,,,1,,,"
                    <p><div style=""color:white;"">Do you want to take this option?</div></p>
                        ",,1155.99,,,2,5,9,12,5,0,2,"[[504,1345,749.99,801.99,631.92,887.99,915,431.76,646.08,825.99,590.99,1115.99],[799.99,723,871.99,1225,1155.99,735.99,811,945.99,383.76,864,1691.99,1253.99],[528,642.96,1322,1083,1061.99,576,835,1008,1709,673.99,935,1187.99],[1113.99,912,746.99,432,745.99,918.99,725.99,845.99,1250,865.99,798.99,875.99],[667,1763.99,1133.99,571,695.76,795,941.99,359.76,1320,720,480,869.99]]",
,null,option_screen,html-keyboard-response,214,1189164,0.0-205.0-0.0,11,1,2023-02-18 16:09:16,b4b36d01b824878cb522b304283fdf77,109.147.75.184,"Mozilla/5.0 (Windows NT 10.0; Win64; x64) AppleWebKit/537.36 (KHTML, like Gecko) Chrome/110.0.0.0 Safari/537.36 Edg/110.0.1587.49",WebKit,Edge,110.0.1587.49,Windows,10.0,,,,null,,,"
                <h3 style=""color: white;"">You will buy a: SMARTPHONE</h3> <br/> 
                <h3 style=""color: white;"">You have only 6 options left to choose from</h3> <br/> 
                <h3 style=""color: white;"">Current Option:</h3><br/> 
                <h3 style="" color: black;""> £735.99</h3><br/> 
                <h3 style="" color: black;"">Declined Options</span></h3><br/> 
                <h3 style=""left: 0; color: black;"">£799.99..   £723..   £871.99..   £1225..   £1155.99</h3>
                ",,735.99,,,2,6,,,,,,,
,844,response_prompt,html-button-response,215,1190019,0.0-205.0-1.0,11,1,2023-02-18 16:09:16,b4b36d01b824878cb522b304283fdf77,109.147.75.184,"Mozilla/5.0 (Windows NT 10.0; Win64; x64) AppleWebKit/537.36 (KHTML, like Gecko) Chrome/110.0.0.0 Safari/537.36 Edg/110.0.1587.49",WebKit,Edge,110.0.1587.49,Windows,10.0,,,,1,,,"
                    <p><div style=""color:white;"">Do you want to take this option?</div></p>
                        ",,735.99,,,2,6,3,12,5,0,2,"[[504,1345,749.99,801.99,631.92,887.99,915,431.76,646.08,825.99,590.99,1115.99],[799.99,723,871.99,1225,1155.99,735.99,811,945.99,383.76,864,1691.99,1253.99],[528,642.96,1322,1083,1061.99,576,835,1008,1709,673.99,935,1187.99],[1113.99,912,746.99,432,745.99,918.99,725.99,845.99,1250,865.99,798.99,875.99],[667,1763.99,1133.99,571,695.76,795,941.99,359.76,1320,720,480,869.99]]",
,null,option_screen,html-keyboard-response,216,1194323,0.0-206.0-0.0,11,1,2023-02-18 16:09:16,b4b36d01b824878cb522b304283fdf77,109.147.75.184,"Mozilla/5.0 (Windows NT 10.0; Win64; x64) AppleWebKit/537.36 (KHTML, like Gecko) Chrome/110.0.0.0 Safari/537.36 Edg/110.0.1587.49",WebKit,Edge,110.0.1587.49,Windows,10.0,,,,null,,,"
                <h3 style=""color: white;"">You will buy a: SMARTPHONE</h3> <br/> 
                <h3 style=""color: white;"">You have only 5 options left to choose from</h3> <br/> 
                <h3 style=""color: white;"">Current Option:</h3><br/> 
                <h3 style="" color: black;""> £811</h3><br/> 
                <h3 style="" color: black;"">Declined Options</span></h3><br/> 
                <h3 style=""left: 0; color: black;"">£799.99..   £723..   £871.99..   £1225..   £1155.99..   £735.99</h3>
                ",,811,,,2,7,,,,,,,
,762,response_prompt,html-button-response,217,1195097,0.0-206.0-1.0,11,1,2023-02-18 16:09:16,b4b36d01b824878cb522b304283fdf77,109.147.75.184,"Mozilla/5.0 (Windows NT 10.0; Win64; x64) AppleWebKit/537.36 (KHTML, like Gecko) Chrome/110.0.0.0 Safari/537.36 Edg/110.0.1587.49",WebKit,Edge,110.0.1587.49,Windows,10.0,,,,1,,,"
                    <p><div style=""color:white;"">Do you want to take this option?</div></p>
                        ",,811,,,2,7,5,12,5,0,2,"[[504,1345,749.99,801.99,631.92,887.99,915,431.76,646.08,825.99,590.99,1115.99],[799.99,723,871.99,1225,1155.99,735.99,811,945.99,383.76,864,1691.99,1253.99],[528,642.96,1322,1083,1061.99,576,835,1008,1709,673.99,935,1187.99],[1113.99,912,746.99,432,745.99,918.99,725.99,845.99,1250,865.99,798.99,875.99],[667,1763.99,1133.99,571,695.76,795,941.99,359.76,1320,720,480,869.99]]",
,null,option_screen,html-keyboard-response,218,1199118,0.0-207.0-0.0,11,1,2023-02-18 16:09:16,b4b36d01b824878cb522b304283fdf77,109.147.75.184,"Mozilla/5.0 (Windows NT 10.0; Win64; x64) AppleWebKit/537.36 (KHTML, like Gecko) Chrome/110.0.0.0 Safari/537.36 Edg/110.0.1587.49",WebKit,Edge,110.0.1587.49,Windows,10.0,,,,null,,,"
                <h3 style=""color: white;"">You will buy a: SMARTPHONE</h3> <br/> 
                <h3 style=""color: white;"">You have only 4 options left to choose from</h3> <br/> 
                <h3 style=""color: white;"">Current Option:</h3><br/> 
                <h3 style="" color: black;""> £945.99</h3><br/> 
                <h3 style="" color: black;"">Declined Options</span></h3><br/> 
                <h3 style=""left: 0; color: black;"">£799.99..   £723..   £871.99..   £1225..   £1155.99..   £735.99..   £811</h3>
                ",,945.99,,,2,8,,,,,,,
